Line_Num,ESP32_Time,ID0,LinAcc_x,LinAcc_y,LinAcc_z,Pitch_deg,Roll_deg,Yaw_deg,Gyro_deg_x,Gyro_deg_y,Gyro_deg_z,Magnet_uT_x,Magnet_uT_y,Magnet_uT_z,Grav_x,Grav_y,Grav_z,Quat_re,Quat_i,Quat_j,Quat_k,ID1,RawPress_Pa,RawAirspeed,CorrAirspeed,temp_C,ID2,latitude,longitude,heading,gnd_speed,gnd_speed_ms,altitude,hours,mins,secs,hundredths,satellites
1,0.080354,0,0.039,0.012,0.012,8.099,-0.974,95.025,-1.119,0,0,-28.312,0,-29.438,1.383,-0.141,9.867,0.673,-0.058,-0.041,-0.736,1,-35.246,-7.788,0,27.675,2,41.519432,-86.239815,0,0.049,0.014934471,252.800003,11,46,46,0,12
2,0.100472,0,0.074,0.059,0.051,8.095,-0.989,95.024,-1.343,0.112,0.112,-29.25,3.125,-27.688,1.383,-0.148,9.867,0.673,-0.058,-0.041,-0.736,1,-35.246,-7.788,0,27.675,2,41.519432,-86.239815,0,0.221,0.067357513,252.800003,11,46,46,8,12
3,0.177378,0,0.031,-0.055,0.012,8.091,-1.024,95.021,-1.119,0.112,0.112,-27.375,-0.5,-25.375,1.391,-0.148,9.867,0.673,-0.058,-0.041,-0.736,1,-38.402,-8.129,0,27.675,2,41.519432,-86.239815,0,0.118,0.035964645,252.800003,11,46,46,20,12
4,0.223378,0,-0.039,0.027,0.004,8.083,-1.055,95.019,0,0,0,-28.188,3.938,-27.938,1.391,-0.156,9.875,0.673,-0.058,-0.041,-0.736,1,-38.402,-8.129,0,27.675,2,41.519432,-86.239815,0,0.159,0.048460835,252.800003,11,46,46,24,12
5,0.297378,0,0.039,-0.047,-0.035,8.072,-1.045,95.02,0.224,0.112,-0.112,-29.188,2,-26.688,1.383,-0.156,9.875,0.673,-0.058,-0.041,-0.736,1,-35.246,-7.788,0,27.675,2,41.519432,-86.239815,0,0.132,0.040231637,252.800003,11,46,46,32,12
6,0.381378,0,0.074,-0.012,0.004,8.075,-1.01,95.027,0.112,-0.112,0,-28.062,2.312,-27.188,1.383,-0.156,9.875,0.673,-0.058,-0.041,-0.736,1,-32.09,-7.431,0,27.675,2,41.519432,-86.239815,0,0.098,0.029868942,252.800003,11,46,46,40,12
7,0.422378,0,-0.008,-0.012,-0.043,8.06,-0.986,95.024,-0.336,0,0.112,-28,-1.062,-26.938,1.391,-0.156,9.883,0.673,-0.058,-0.041,-0.736,1,-45.767,-8.875,0,27.675,2,41.519432,-86.239815,0,0.041,0.01249619,252.800003,11,46,46,44,12
8,0.506378,0,-0.008,-0.039,-0.043,8.055,-1.001,95.018,-0.783,0,-0.112,-26.562,3.812,-28.062,1.391,-0.164,9.883,0.673,-0.058,-0.041,-0.736,1,-38.402,-8.129,0,27.675,2,41.519432,-86.239815,0,0.046,0.014020116,252.800003,11,46,46,52,12
9,0.577378,0,0,-0.039,-0.004,8.057,-1.04,95.03,-0.336,-0.112,-0.112,-28.438,-0.75,-26.562,1.383,-0.164,9.883,0.673,-0.058,-0.041,-0.736,1,-45.767,-8.875,0,27.675,2,41.519432,-86.239815,0,0.089,0.027125876,252.800003,11,46,46,60,12
10,0.665378,0,0.039,-0.004,0.035,8.057,-1.05,95.034,1.231,0,-0.112,-28.875,2.812,-27.75,1.383,-0.164,9.883,0.673,-0.058,-0.041,-0.736,1,-42.611,-8.563,0,27.675,2,41.519432,-86.239815,0,0.025,0.007619628,252.800003,11,46,46,68,12
11,0.783378,0,0,-0.02,-0.078,8.032,-0.922,95.034,0.895,0,0.112,-29.75,1.562,-29,1.383,-0.148,9.883,0.673,-0.057,-0.041,-0.736,1,-42.611,-8.563,0,27.675,2,41.519432,-86.239815,0,0.091,0.027735447,252.800003,11,46,46,80,12
12,0.856378,0,0,-0.039,0.082,8.037,-0.917,95.034,-1.007,-0.112,-0.112,-26.625,1.062,-27.938,1.383,-0.164,9.875,0.673,-0.057,-0.041,-0.736,1,-42.611,-8.563,0,27.675,2,41.519432,-86.239815,0,0.137,0.041755562,252.800003,11,46,46,88,12
13,0.902378,0,0.066,-0.039,-0.004,8.035,-0.99,95.049,0.56,0,-0.112,-26.625,1.875,-28.938,1.391,-0.164,9.883,0.673,-0.057,-0.041,-0.736,1,-42.611,-8.563,0,27.675,2,41.519432,-86.239815,0,0.059,0.017982322,252.800003,11,46,46,92,12
14,0.952378,0,-0.008,-0.004,0.035,8.032,-0.911,95.044,1.902,0,0,-27.688,2.5,-27,1.391,-0.164,9.883,0.673,-0.057,-0.041,-0.736,1,-42.611,-8.563,0,27.675,2,41.519432,-86.239815,0,0.111,0.033831149,252.800003,11,46,46,96,12
15,1.026378,0,-0.055,-0.02,-0.043,8.029,-0.852,95.043,1.455,0.112,-0.112,-27.312,3.188,-27.562,1.391,-0.141,9.883,0.673,-0.057,-0.042,-0.736,1,-45.767,-8.875,0,27.675,2,41.519432,-86.239815,0,0.015,0.004571777,252.800003,11,46,47,4,12
16,1.105358,0,0.031,0.012,0.035,8.026,-0.782,95.044,0.56,0,0,-26.812,2.312,-27.812,1.391,-0.133,9.883,0.673,-0.056,-0.042,-0.736,1,-38.402,-8.129,0,27.675,2,41.519432,-86.239815,0,0.079,0.024078025,252.800003,11,46,47,8,12
17,1.142378,0,-0.008,-0.035,0.035,8.027,-0.812,95.051,-0.56,0.112,0.112,-27.625,-0.25,-28.5,1.391,-0.133,9.883,0.673,-0.056,-0.042,-0.736,1,-42.611,-8.563,0,27.675,2,41.519432,-86.239815,0,0.081,0.024687595,252.800003,11,46,47,16,12
18,1.224378,0,-0.008,0.012,-0.051,8.024,-0.837,95.05,-0.895,0.112,0.224,-28.188,4.125,-28.938,1.391,-0.141,9.891,0.673,-0.057,-0.042,-0.736,1,-38.402,-8.129,0,27.675,2,41.519432,-86.239815,0,0.106,0.032307223,252.800003,11,46,47,24,12
19,1.304378,0,-0.008,-0.047,-0.004,8.02,-0.872,95.042,-0.112,-0.112,-0.112,-27.812,1.312,-28.812,1.391,-0.148,9.883,0.673,-0.057,-0.042,-0.736,1,-45.767,-8.875,0,27.675,2,41.519432,-86.239815,0,0.061,0.018591893,252.800003,11,46,47,32,12
20,1.350378,0,0.066,0.027,-0.004,8.027,-0.906,95.045,-0.224,-0.224,0.112,-27.562,2.062,-27.812,1.383,-0.164,9.883,0.673,-0.057,-0.041,-0.736,1,-45.767,-8.875,0,27.675,2,41.519432,-86.239815,0,0.127,0.038707711,252.800003,11,46,47,36,12
21,1.381378,0,0.031,-0.012,0.035,8.022,-0.921,95.054,0,0,0,-30.562,3.438,-27.062,1.391,-0.156,9.883,0.673,-0.057,-0.041,-0.736,1,-38.402,-8.129,0,27.675,2,41.519432,-86.239815,0,0.14,0.042669918,252.800003,11,46,47,40,12
22,1.464378,0,-0.008,-0.047,-0.078,8.027,-0.916,95.054,0.112,0,0,-30.188,3.438,-27.5,1.391,-0.156,9.883,0.673,-0.057,-0.041,-0.736,1,-42.611,-8.563,0,27.675,2,41.519432,-86.239815,0,0.116,0.035355075,252.800003,11,46,47,48,12
23,1.586378,0,-0.008,0.027,0.035,8.022,-0.901,95.055,0.671,-0.112,0.112,-27.938,2.125,-28.25,1.391,-0.164,9.883,0.673,-0.057,-0.041,-0.736,1,-42.611,-8.563,0,27.675,2,41.519432,-86.239815,0,0.132,0.040231637,252.800003,11,46,47,60,12
24,1.626378,0,-0.047,0.043,-0.043,8.015,-0.867,95.042,-1.902,-0.112,0,-27.375,4,-28.688,1.391,-0.164,9.883,0.673,-0.057,-0.042,-0.736,1,-42.611,-8.563,0,27.675,2,41.519432,-86.239815,0,0.147,0.044803414,252.800003,11,46,47,64,12
25,1.661379,0,-0.047,-0.07,-0.004,8.021,-1.006,95.038,-1.119,-0.336,-0.224,-29.062,1.812,-28.875,1.391,-0.164,9.883,0.673,-0.057,-0.041,-0.736,1,-42.611,-8.563,0,27.675,2,41.519432,-86.239815,0,0.268,0.081682414,252.800003,11,46,47,68,12
26,1.744378,0,-0.008,-0.07,0.113,8.027,-1.03,95.046,0.224,-0.112,-0.112,-28.625,0.938,-27.938,1.391,-0.172,9.883,0.673,-0.058,-0.041,-0.736,1,-38.402,-8.129,0,27.675,2,41.519432,-86.239815,0,0.088,0.026821091,252.800003,11,46,47,76,12
27,1.825378,0,0.031,-0.012,-0.012,8.023,-0.941,95.042,2.91,0.224,0.224,-26.812,2.562,-27.938,1.391,-0.156,9.891,0.673,-0.057,-0.041,-0.736,1,-42.611,-8.563,0,27.675,2,41.519432,-86.239815,0,0.199,0.06065224,252.800003,11,46,47,84,12
28,1.860378,0,-0.047,0.082,-0.086,8.005,-0.764,95.03,-0.112,0.224,0,-27.688,3,-28.062,1.391,-0.141,9.891,0.673,-0.056,-0.042,-0.736,1,-42.611,-8.563,0,27.675,2,41.519432,-86.239815,0,0.091,0.027735447,252.800003,11,46,47,88,12
29,1.900378,0,-0.133,0.051,-0.004,8.002,-0.809,95.027,-2.462,-0.224,-0.112,-28.75,-0.812,-28.375,1.391,-0.141,9.891,0.673,-0.056,-0.042,-0.736,1,-45.767,-8.875,0,27.675,2,41.519432,-86.239815,0,0.111,0.033831149,252.800003,11,46,47,92,12
30,1.950378,0,-0.086,-0.055,-0.043,8.013,-0.943,95.032,-3.469,-0.224,-0.224,-28.25,4.375,-28.688,1.391,-0.148,9.883,0.673,-0.057,-0.041,-0.736,1,-38.402,-8.129,0,27.675,2,41.519432,-86.239815,0,0.076,0.02316367,252.800003,11,46,47,96,12
31,2.070377,0,0.047,-0.07,0.035,8.019,-1.061,95.044,-1.119,-0.336,-0.448,-26.938,0.875,-28.438,1.375,-0.172,9.883,0.673,-0.058,-0.04,-0.736,1,-38.402,-8.129,0,27.675,2,41.519432,-86.239815,0,0.046,0.014020116,252.699997,11,46,48,8,12
32,2.144378,0,0.031,-0.02,-0.051,8.022,-1.015,95.057,2.686,0.224,0.336,-27.062,2.188,-29.188,1.398,-0.141,9.891,0.673,-0.058,-0.041,-0.736,1,-42.611,-8.563,0,27.675,2,41.519432,-86.239815,0,0.116,0.035355075,252.699997,11,46,48,16,12
33,2.224378,0,-0.102,0.129,0.059,8.016,-0.793,95.038,-0.671,-0.112,0.112,-26.938,0.562,-28.375,1.406,-0.141,9.898,0.673,-0.056,-0.042,-0.736,1,-38.402,-8.129,0,27.675,2,41.519432,-86.239815,0,0.1,0.030478513,252.699997,11,46,48,24,12
34,2.307378,0,-0.117,-0.055,-0.094,8.05,-0.872,95.027,-0.112,-0.448,0.112,-27.688,3.375,-28.562,1.375,-0.148,9.898,0.673,-0.057,-0.042,-0.736,1,-42.611,-8.563,0,27.675,2,41.519432,-86.239815,0,0.137,0.041755562,252.699997,11,46,48,32,12
35,2.426378,0,0.352,0.395,-0.004,8.055,-0.877,95.017,2.574,-1.119,0.112,-27.125,1.5,-27,1.375,-0.141,9.883,0.673,-0.057,-0.042,-0.736,1,-48.923,-9.176,0,27.675,2,41.519432,-86.239815,0,0.106,0.032307223,252.699997,11,46,48,44,12
36,2.465378,0,-0.078,0.098,-0.043,8.05,-0.768,95.015,1.567,-0.336,0,-29,0.562,-27.062,1.422,-0.148,9.883,0.673,-0.056,-0.042,-0.736,1,-42.611,-8.563,0,27.675,2,41.519432,-86.239815,0,0.191,0.058213959,252.699997,11,46,48,48,12
37,2.581378,0,-0.156,0.203,-0.148,8.061,-0.798,95.012,-0.224,-0.112,-0.336,-28.562,-0.188,-26.562,1.414,-0.141,9.875,0.673,-0.057,-0.042,-0.736,1,-38.402,-8.129,0,27.675,2,41.519432,-86.239815,0,0.197,0.06004267,252.699997,11,46,48,60,12
38,2.697378,0,0.191,-0.102,0.035,8.1,-0.887,95.061,-1.119,-0.336,-0.448,-27.875,2,-29.562,1.383,-0.148,9.883,0.673,-0.057,-0.042,-0.736,1,-42.611,-8.563,0,27.675,2,41.519432,-86.239815,0,0.052,0.015848827,252.600006,11,46,48,72,12
39,2.784378,0,-0.078,0.059,-0.051,8.082,-0.815,95.036,1.007,0,0.112,-26.5,3.375,-29.062,1.422,-0.148,9.891,0.673,-0.057,-0.042,-0.736,1,-45.767,-8.875,0,27.675,2,41.519432,-86.239815,0,0.068,0.020725389,252.600006,11,46,48,80,12
40,2.839378,0,0.023,-0.039,0.121,8.101,-0.898,95.04,-1.231,-0.448,-0.224,-29.375,0.812,-28.375,1.406,-0.164,9.883,0.673,-0.057,-0.042,-0.736,1,-35.246,-7.788,0,27.675,2,41.519428,-86.239815,0,0.111,0.033831149,252.600006,11,46,48,84,12
41,2.949378,0,0.145,-0.031,0.227,8.107,-0.921,95.073,0.671,0,-0.336,-29.375,3.75,-27.812,1.391,-0.164,9.875,0.673,-0.058,-0.042,-0.736,1,-38.402,-8.129,0,27.675,2,41.519428,-86.239815,0,0.019,0.005790917,252.600006,11,46,48,96,12
42,3.069378,0,-0.047,-0.219,-0.125,8.095,-0.872,95.072,1.119,0.224,0.671,-28.75,2.125,-27.938,1.422,-0.141,9.898,0.673,-0.057,-0.042,-0.736,1,-32.09,-7.431,0,27.675,2,41.519428,-86.239815,0,0.093,0.028345017,252.600006,11,46,49,8,12
43,3.137378,0,-0.008,0.051,0.113,8.069,-0.758,95.015,-1.119,0.224,0,-28.812,-1.062,-26.812,1.406,-0.141,9.883,0.673,-0.056,-0.043,-0.736,1,-35.246,-7.788,0,27.675,2,41.519428,-86.239815,0,0.052,0.015848827,252.5,11,46,49,16,12
44,3.222378,0,0.105,0.129,-0.078,8.081,-0.9,95.035,-2.462,-0.336,-0.112,-26.75,-1,-28.188,1.391,-0.141,9.883,0.673,-0.057,-0.042,-0.736,1,-35.246,-7.788,0,27.675,2,41.519428,-86.239815,0,0.127,0.038707711,252.5,11,46,49,24,12
45,3.268378,0,0.105,0.051,-0.156,8.098,-1.047,95.045,-2.014,-0.224,-0.336,-27.375,3.688,-29.188,1.406,-0.18,9.883,0.673,-0.058,-0.041,-0.736,1,-35.246,-7.788,0,27.675,2,41.519428,-86.239815,0,0.095,0.028954587,252.5,11,46,49,28,12
46,3.390379,0,0,0.168,0.113,8.082,-1.033,95.04,1.455,0.224,0.112,-26.062,-0.625,-27.5,1.414,-0.18,9.883,0.673,-0.058,-0.041,-0.736,1,-38.402,-8.129,0,27.675,2,41.519428,-86.239815,0,0.066,0.020115818,252.5,11,46,49,40,12
47,3.462378,0,0.016,-0.102,-0.012,8.087,-0.923,95.048,1.455,0.112,0.224,-29,1.062,-28.5,1.406,-0.141,9.891,0.673,-0.057,-0.042,-0.736,1,-42.611,-8.563,0,27.675,2,41.519428,-86.239815,0,0.096,0.029259372,252.5,11,46,49,48,12
48,3.542378,0,0.008,-0.035,-0.133,8.082,-0.816,95.021,0.56,-0.224,0.224,-27.188,1.188,-27,1.414,-0.133,9.898,0.673,-0.057,-0.042,-0.736,1,-38.402,-8.129,0,27.675,2,41.519428,-86.239815,0,0.118,0.035964645,252.5,11,46,49,56,12
49,3.663378,0,-0.062,-0.078,0.074,8.09,-0.777,95.014,0.783,-0.336,-0.224,-26.875,-0.438,-27.938,1.414,-0.125,9.883,0.673,-0.057,-0.043,-0.736,1,-45.767,-8.875,0,27.675,2,41.519428,-86.239815,0,0.056,0.017067967,252.399994,11,46,49,68,12
50,3.707378,0,0.082,0.004,0.027,8.1,-0.775,95.029,-2.462,0.112,0.224,-28.562,0.25,-27.562,1.414,-0.164,9.891,0.673,-0.057,-0.043,-0.736,1,-42.611,-8.563,0,27.675,2,41.519428,-86.239815,0,0.062,0.018896678,252.399994,11,46,49,72,12
51,3.747378,0,-0.039,0.004,0.027,8.105,-0.999,95.013,-1.119,-0.112,0,-27,4.312,-29.312,1.422,-0.18,9.891,0.673,-0.058,-0.041,-0.736,1,-48.923,-9.176,0,27.675,2,41.519428,-86.239815,0,0.084,0.025601951,252.399994,11,46,49,76,12
52,3.903378,0,-0.117,-0.102,0.027,8.115,-1.008,95.032,0.224,-0.224,-0.336,-28.438,3.375,-29.875,1.422,-0.18,9.891,0.673,-0.058,-0.041,-0.736,1,-48.923,-9.176,0,27.675,2,41.519428,-86.239815,0,0.106,0.032307223,252.399994,11,46,49,92,12
53,3.948378,0,-0.039,0.164,-0.059,8.121,-0.793,95.047,0.895,-0.112,-0.224,-29.062,1.25,-27.688,1.422,-0.141,9.898,0.673,-0.057,-0.043,-0.736,1,-45.767,-8.875,0,27.675,2,41.519428,-86.239815,0,0.057,0.017372752,252.399994,11,46,49,96,12
54,4.022378,0,-0.156,-0.035,-0.059,8.113,-0.739,95.036,-0.671,-0.112,0,-27.25,2.25,-27.688,1.422,-0.133,9.898,0.673,-0.057,-0.043,-0.736,1,-38.402,-8.129,0,27.675,2,41.519428,-86.239815,0,0.108,0.032916794,252.399994,11,46,50,4,12
55,4.078378,0,0.137,-0.004,-0.086,8.129,-0.867,95.052,-2.462,-0.224,-0.336,-27.75,0.5,-27.688,1.398,-0.172,9.883,0.673,-0.057,-0.042,-0.736,1,-38.402,-8.129,0,27.675,2,41.519428,-86.239815,0,0.221,0.067357513,252.399994,11,46,50,8,12
56,4.220377,0,0.059,-0.07,-0.117,8.125,-0.985,95.069,-1.231,-0.448,-0.112,-29.062,-0.938,-28.938,1.398,-0.188,9.883,0.673,-0.058,-0.042,-0.736,1,-35.246,-7.788,0,27.675,2,41.519428,-86.239815,0,0.201,0.06126181,252.399994,11,46,50,24,12
57,4.266378,0,0.09,-0.016,0.066,8.126,-1.004,95.077,3.357,0.336,0.56,-28.5,0.75,-29,1.43,-0.148,9.906,0.673,-0.058,-0.041,-0.736,1,-42.611,-8.563,0,27.675,2,41.519428,-86.239815,0,0.078,0.02377324,252.399994,11,46,50,28,12
58,4.342378,0,-0.086,-0.094,-0.027,8.098,-0.727,95.007,1.343,0,0.112,-28.812,-0.062,-29.188,1.414,-0.141,9.906,0.674,-0.056,-0.043,-0.736,1,-42.611,-8.563,0,27.675,2,41.519428,-86.239815,0,0.145,0.044193843,252.399994,11,46,50,36,12
59,4.469377,0,-0.109,0.129,-0.141,8.101,-0.806,95.017,-1.343,0,-0.336,-28.5,-0.188,-27.125,1.398,-0.148,9.891,0.673,-0.057,-0.043,-0.736,1,-38.402,-8.129,0,27.675,2,41.519428,-86.239815,0,0.236,0.07192929,252.399994,11,46,50,48,12
60,4.587378,0,0.043,-0.207,-0.004,8.114,-1.071,95.043,-2.91,0,-0.224,-28,-0.625,-27.875,1.414,-0.195,9.883,0.673,-0.058,-0.041,-0.736,1,-38.402,-8.129,0,27.675,2,41.519428,-86.239815,0,0.078,0.02377324,252.399994,11,46,50,60,12
61,4.626378,0,-0.109,0.176,-0.02,8.092,-0.918,95.049,1.567,0.224,-0.112,-27.75,0.562,-28.125,1.414,-0.188,9.898,0.673,-0.057,-0.042,-0.736,1,-38.402,-8.129,0,27.675,2,41.519428,-86.239815,0,0.095,0.028954587,252.399994,11,46,50,64,12
62,4.705378,0,-0.133,0.035,-0.211,8.085,-0.874,95.042,1.343,0,0.224,-29.625,2.062,-26.75,1.398,-0.164,9.898,0.673,-0.057,-0.042,-0.736,1,-38.402,-8.129,0,27.675,2,41.519428,-86.239815,0,0.147,0.044803414,252.399994,11,46,50,72,12
63,4.824378,0,0.105,-0.102,0.066,8.083,-0.834,95.045,0.336,0.112,-0.224,-27.812,3.625,-28.375,1.391,-0.141,9.891,0.673,-0.057,-0.042,-0.736,1,-35.246,-7.788,0,27.675,2,41.519428,-86.239815,0,0.159,0.048460835,252.399994,11,46,50,84,12
64,4.867378,0,-0.199,-0.203,-0.117,8.072,-0.794,95.057,-0.783,0.224,0.224,-29.188,1.688,-26.688,1.43,-0.141,9.891,0.673,-0.057,-0.042,-0.736,1,-42.611,-8.563,0,27.675,2,41.519428,-86.239815,0,0.035,0.010667479,252.399994,11,46,50,88,12
65,4.953378,0,-0.262,-0.148,0.043,8.069,-0.86,95.038,0.336,-0.112,-0.336,-27.062,3.75,-27.688,1.422,-0.164,9.875,0.673,-0.057,-0.042,-0.736,1,-42.611,-8.563,0,27.675,2,41.519428,-86.239815,0,0.032,0.009753124,252.399994,11,46,50,96,12
66,5.021378,0,0.176,0.48,-0.062,8.064,-0.832,95.085,0.56,0.448,-0.56,-28.5,2.188,-26.438,1.391,-0.188,9.867,0.673,-0.057,-0.042,-0.736,1,-38.402,-8.129,0,27.675,2,41.519428,-86.239815,0,0.086,0.026211521,252.399994,11,46,51,4,12
67,5.076378,0,-0.055,-0.062,0.004,8.02,-0.859,95.088,-0.783,0.224,0.112,-26.25,0.625,-27.875,1.398,-0.18,9.875,0.673,-0.057,-0.042,-0.736,1,-45.767,-8.875,0,27.675,2,41.519428,-86.239815,0,0.098,0.029868942,252.399994,11,46,51,8,12
68,5.139378,0,-0.133,-0.016,-0.035,8.027,-0.903,95.09,-1.119,-0.224,-0.112,-28.562,3.75,-28.812,1.398,-0.188,9.875,0.673,-0.057,-0.041,-0.736,1,-45.767,-8.875,0,27.675,2,41.519428,-86.239815,0,0.089,0.027125876,252.399994,11,46,51,16,12
69,5.186378,0,-0.168,0.633,0.348,8.025,-0.978,95.079,-0.56,0.448,-0.112,-27.188,1.062,-26.312,1.398,-0.188,9.875,0.673,-0.057,-0.041,-0.736,1,-38.402,-8.129,0,27.675,2,41.519428,-86.239815,0,0.096,0.029259372,252.300003,11,46,51,20,12
70,5.260378,0,-0.141,0.359,-0.148,8.035,-0.978,95.074,1.902,0,0.336,-26.188,3.812,-28.562,1.398,-0.188,9.875,0.673,-0.057,-0.041,-0.736,1,-45.767,-8.875,0,27.675,2,41.519428,-86.239815,0,0.162,0.04937519,252.300003,11,46,51,28,12
71,5.306378,0,0.398,-0.125,0.234,8.052,-0.794,95.072,4.476,-0.671,0.224,-28.625,0.875,-27.812,1.406,-0.125,9.875,0.673,-0.056,-0.042,-0.736,1,-45.767,-8.875,0,27.675,2,41.519428,-86.239815,0,0.255,0.077720207,252.300003,11,46,51,32,12
72,5.379378,0,0.359,-0.371,0.043,8.086,-0.57,95.058,0.112,0.112,0.336,-29.062,0.75,-26.938,1.414,-0.109,9.875,0.673,-0.055,-0.044,-0.736,1,-42.611,-8.563,0,27.675,2,41.519428,-86.239815,0,0.049,0.014934471,252.300003,11,46,51,40,12
73,5.459378,0,-0.375,-0.371,-0.301,8.075,-0.659,95.002,-4.029,1.007,0.783,-26.875,2.562,-28.25,1.414,-0.133,9.875,0.674,-0.056,-0.043,-0.736,1,-45.767,-8.875,0,27.675,2,41.519428,-86.239815,0,0.228,0.069491009,252.399994,11,46,51,48,12
74,5.539378,0,-0.148,0.633,-0.07,8.059,-0.863,95.008,0.671,-1.119,-1.231,-29.438,0.812,-26.938,1.414,-0.148,9.875,0.673,-0.057,-0.042,-0.736,1,-42.611,-8.563,0,27.675,2,41.519428,-86.239815,0,0.088,0.026821091,252.300003,11,46,51,56,12
75,5.666378,0,0.238,0.73,-0.379,8.07,-0.752,95.095,3.469,-1.007,0.448,-26.688,0.875,-27.125,1.414,-0.102,9.875,0.673,-0.056,-0.043,-0.736,1,-42.611,-8.563,0,27.675,2,41.519428,-86.239815,0,0.093,0.028345017,252.300003,11,46,51,68,12
76,5.739378,0,-0.062,0.473,0.035,8.032,-0.579,95.043,-1.79,0.783,-1.679,-26.625,0.75,-28.312,1.406,-0.102,9.883,0.673,-0.055,-0.044,-0.736,1,-48.923,-9.176,0,27.675,2,41.519428,-86.239815,0,0.154,0.046936909,252.300003,11,46,51,76,12
77,5.784378,0,-0.176,0.512,0.035,8.047,-0.696,95.059,-1.119,-0.224,0.895,-26.5,-0.125,-28.5,1.406,-0.109,9.883,0.673,-0.056,-0.043,-0.736,1,-45.767,-8.875,0,27.675,2,41.519428,-86.239815,0,0.059,0.017982322,252.300003,11,46,51,80,12
78,5.857378,0,-0.141,0.363,-0.004,8.032,-0.579,95.043,3.245,-0.895,1.007,-27.062,2.438,-30.688,1.398,-0.094,9.883,0.673,-0.055,-0.044,-0.736,1,-48.923,-9.176,0,27.675,2,41.519428,-86.239815,0,0.12,0.036574215,252.300003,11,46,51,88,12
79,5.904378,0,-0.324,0.77,0.188,8.083,-0.504,95.013,0.336,0.224,0.112,-28.5,0.438,-29,1.406,-0.07,9.883,0.674,-0.055,-0.044,-0.736,1,-42.611,-8.563,0,27.675,2,41.519428,-86.239815,0,0.032,0.009753124,252.300003,11,46,51,92,12
80,5.944378,0,-0.301,-0.738,0.035,8.101,-0.567,95.019,-1.007,0.671,-1.007,-29.562,3.312,-30.688,1.414,-0.086,9.883,0.674,-0.055,-0.044,-0.736,1,-38.402,-8.129,0,27.675,2,41.519428,-86.239815,0,0.035,0.010667479,252.300003,11,46,51,96,12
81,6.019378,0,0.352,-1.496,-0.461,8.063,-0.595,95.076,-0.671,1.007,-1.231,-27.875,-1.688,-27.312,1.406,-0.094,9.883,0.673,-0.055,-0.044,-0.736,1,-42.611,-8.563,0,27.675,2,41.519428,-86.239815,0,0.228,0.069491009,252.300003,11,46,52,4,12
82,6.063378,0,0.016,-0.012,0.188,8.062,-0.906,95.099,-5.483,-0.224,0.336,-28.562,-0.438,-25.5,1.406,-0.156,9.883,0.673,-0.057,-0.042,-0.736,1,-38.402,-8.129,0,27.675,2,41.519428,-86.239815,0,0.111,0.033831149,252.300003,11,46,52,8,12
83,6.217378,0,0.098,0.52,0.266,8.019,-0.827,95.125,4.812,0.56,0.783,-28.25,1.125,-27.5,1.398,-0.141,9.883,0.673,-0.056,-0.042,-0.737,1,-42.611,-8.563,0,27.675,2,41.519424,-86.239815,0,0.108,0.032916794,252.300003,11,46,52,24,12
84,6.298378,0,0.059,0.855,-0.117,8.037,-0.478,95.06,7.386,0.448,1.455,-28.75,3.062,-29.938,1.398,-0.086,9.883,0.673,-0.055,-0.044,-0.736,1,-53.132,-9.562,0,27.675,2,41.519424,-86.239815,0,0.12,0.036574215,252.300003,11,46,52,32,12
85,6.344378,0,0.266,-0.148,-0.043,8.139,-0.98,95.059,-7.386,-1.679,0,-26.5,2.875,-28.438,1.422,-0.172,9.883,0.673,-0.058,-0.042,-0.736,1,-53.132,-9.562,0,27.675,2,41.519424,-86.239815,0,0.17,0.051813472,252.300003,11,46,52,36,12
86,6.380378,0,0.082,-0.391,-0.078,8.147,-1.158,95.061,1.455,-0.448,0.895,-27.688,3.062,-28.75,1.414,-0.195,9.883,0.673,-0.059,-0.041,-0.736,1,-48.923,-9.176,0,27.675,2,41.519424,-86.239815,0,0.147,0.044803414,252.300003,11,46,52,40,12
87,6.458378,0,-0.078,-0.316,-0.086,8.152,-1.154,95.052,5.148,0.224,0.56,-27.625,2.375,-28.25,1.422,-0.172,9.891,0.673,-0.059,-0.041,-0.736,1,-53.132,-9.562,0,27.675,2,41.519424,-86.239815,0,0.069,0.021030174,252.300003,11,46,52,48,12
88,6.538378,0,0.168,0.277,-0.086,8.123,-0.626,95.024,7.05,0.56,0.224,-26.875,2.5,-27.875,1.406,-0.078,9.891,0.673,-0.056,-0.044,-0.736,1,-56.288,-9.842,0,27.675,2,41.519424,-86.239815,0,0.15,0.045717769,252.199997,11,46,52,56,12
89,6.618378,0,0.129,0.281,-0.012,8.079,-0.413,95.04,-4.812,-0.224,-0.448,-28.5,-0.562,-26.75,1.406,-0.078,9.891,0.673,-0.054,-0.045,-0.736,1,-45.767,-8.875,0,27.675,2,41.519424,-86.239815,0,0.111,0.033831149,252.199997,11,46,52,64,12
90,6.699378,0,-0.332,0.543,0.105,8.093,-0.831,95.084,-0.783,0.56,-0.671,-29.125,1.062,-26.688,1.406,-0.141,9.883,0.673,-0.057,-0.042,-0.736,1,-53.132,-9.562,0,27.675,2,41.519424,-86.239815,0,0.152,0.046327339,252.199997,11,46,52,72,12
91,6.777378,0,-0.629,-0.156,0.133,8.051,-0.568,95.049,6.602,1.119,0.783,-27.062,0.062,-25.75,1.398,-0.055,9.898,0.673,-0.055,-0.044,-0.736,1,-45.767,-8.875,0,27.675,2,41.519424,-86.239815,0,0.069,0.021030174,252.199997,11,46,52,80,12
92,6.903378,0,0.137,0.285,-0.094,8.038,-0.147,95.043,-0.56,0,-1.79,-26.375,1.875,-28.188,1.398,-0.023,9.891,0.674,-0.053,-0.046,-0.736,1,-45.767,-8.875,0,27.675,2,41.519424,-86.239815,0,0.11,0.033526364,252.199997,11,46,52,92,12
93,6.944378,0,-0.285,-0.309,-0.164,8.037,-0.467,95.076,-2.014,-0.671,-1.231,-27.625,1.562,-27.25,1.398,-0.125,9.891,0.673,-0.054,-0.044,-0.736,1,-53.132,-9.562,0,27.675,2,41.519424,-86.239815,0,0.13,0.039622066,252.199997,11,46,52,96,12
94,7.074378,0,0.176,0.441,0.371,8.078,-0.71,95.123,2.798,-0.224,-0.56,-29.188,2.5,-28.188,1.398,-0.117,9.891,0.673,-0.056,-0.043,-0.736,1,-53.132,-9.562,0,27.675,2,41.519424,-86.239815,0,0.017,0.005181347,252.199997,11,46,53,8,12
95,7.183378,0,-0.293,-0.547,-0.586,8.065,-0.527,95.116,-1.79,-0.448,2.238,-27.75,2.875,-27.5,1.406,-0.078,9.891,0.673,-0.055,-0.044,-0.736,1,-53.132,-9.562,0,27.675,2,41.519424,-86.239815,0,0.096,0.029259372,252.199997,11,46,53,20,12
96,7.299378,0,-0.332,-0.508,-0.434,8.13,-0.776,94.999,-3.693,-0.112,-1.119,-26.688,4,-27.812,1.406,-0.133,9.891,0.674,-0.057,-0.043,-0.736,1,-53.132,-9.562,0,27.675,2,41.519424,-86.239815,0,0.083,0.025297165,252.199997,11,46,53,32,12
97,7.379378,0,0.09,-0.043,0.141,8.113,-0.74,95.031,-2.574,0,-1.231,-26.312,4.25,-27.5,1.406,-0.141,9.891,0.673,-0.057,-0.043,-0.736,1,-42.611,-8.563,0,27.675,2,41.519424,-86.239815,0,0.054,0.016458397,252.199997,11,46,53,40,12
98,7.457378,0,-0.102,-0.379,-0.012,8.099,-0.541,94.971,3.469,-0.224,0.224,-29.875,0.812,-26.562,1.406,-0.102,9.891,0.674,-0.055,-0.044,-0.735,1,-35.246,-7.788,0,27.675,2,41.519424,-86.239815,0,0.093,0.028345017,252.199997,11,46,53,48,12
99,7.579378,0,-0.016,0.203,-0.051,8.082,-0.6,94.997,1.007,0.56,0.448,-30.562,3.5,-27.938,1.398,-0.094,9.891,0.674,-0.055,-0.044,-0.736,1,-45.767,-8.875,0,27.675,2,41.519424,-86.239815,0,0.177,0.053946967,252.199997,11,46,53,60,12
100,7.622378,0,-0.016,0.172,-0.012,8.089,-0.862,94.998,0.671,-0.112,-0.224,-27.5,1.625,-29.375,1.406,-0.156,9.891,0.674,-0.057,-0.042,-0.736,1,-48.923,-9.176,0,27.675,2,41.519424,-86.239815,0,0.191,0.058213959,252.199997,11,46,53,64,12
101,7.661378,0,-0.023,-0.086,-0.051,8.095,-0.792,95.003,2.686,0,0.112,-26.688,1.062,-28.062,1.406,-0.133,9.891,0.674,-0.057,-0.043,-0.736,1,-42.611,-8.563,0,27.675,2,41.519424,-86.239815,0,0.194,0.059128315,252.100006,11,46,53,68,12
102,7.781378,0,0.016,-0.07,0.105,8.087,-0.718,94.998,2.238,0.336,0.224,-28,3.125,-30.875,1.406,-0.125,9.891,0.674,-0.056,-0.043,-0.736,1,-45.767,-8.875,0,27.675,2,41.519424,-86.239815,0,0.226,0.068881439,252.100006,11,46,53,80,12
103,7.899378,0,0.051,-0.156,0.105,8.064,-0.642,94.974,1.231,0.224,0.336,-28.062,3.625,-30.188,1.391,-0.141,9.891,0.674,-0.056,-0.043,-0.736,1,-48.923,-9.176,0,27.675,2,41.519424,-86.239815,0,0.231,0.070405364,252.199997,11,46,53,92,12
104,7.944378,0,-0.047,0.129,0.027,8.065,-0.775,94.984,-1.679,0,0.112,-27.375,2.688,-26.75,1.383,-0.133,9.891,0.674,-0.056,-0.043,-0.736,1,-56.288,-9.842,0,27.675,2,41.519424,-86.239815,0,0.221,0.067357513,252.100006,11,46,53,96,12
105,8.016378,0,0.098,0.043,-0.012,8.062,-0.715,94.989,1.119,-0.224,-0.112,-27.375,4.125,-29.875,1.398,-0.133,9.891,0.674,-0.056,-0.043,-0.736,1,-59.445,-10.114,0,27.675,2,41.519424,-86.239815,0,0.074,0.022554099,252.100006,11,46,54,4,12
106,8.066378,0,-0.062,-0.109,-0.059,8.054,-0.631,94.985,1.343,0.224,0.224,-26.438,3,-29.312,1.406,-0.094,9.898,0.674,-0.055,-0.043,-0.736,1,-42.611,-8.563,0,27.675,2,41.519424,-86.239815,0,0.051,0.015544041,252.100006,11,46,54,8,12
107,8.137378,0,-0.023,-0.117,0.02,8.049,-0.533,94.976,0.112,0,-0.112,-25.562,1.688,-27.438,1.406,-0.086,9.898,0.674,-0.055,-0.044,-0.736,1,-38.402,-8.129,0,27.675,2,41.519424,-86.239815,0,0.074,0.022554099,252.100006,11,46,54,16,12
108,8.228378,0,0.051,0.059,0.012,8.055,-0.557,94.985,-1.79,-0.224,-0.336,-28.5,3.312,-29.625,1.406,-0.102,9.906,0.674,-0.055,-0.044,-0.736,1,-48.923,-9.176,0,27.675,2,41.519424,-86.239815,0,0.155,0.047241695,252.100006,11,46,54,24,12
109,8.340378,0,0.082,-0.109,-0.094,8.064,-0.755,94.986,-1.902,-0.224,0.112,-27.5,0.625,-27.062,1.414,-0.133,9.898,0.674,-0.056,-0.043,-0.736,1,-42.611,-8.563,0,27.675,2,41.519424,-86.239815,0,0.101,0.030783298,252.100006,11,46,54,36,12
110,8.381378,0,0.043,0.059,-0.102,8.084,-0.753,94.996,1.902,0.448,0.56,-30.312,1.312,-27.5,1.414,-0.109,9.906,0.674,-0.056,-0.043,-0.736,1,-35.246,-7.788,0,27.675,2,41.519424,-86.239815,0,0.064,0.019506248,252.100006,11,46,54,40,12
111,8.466378,0,0.008,0.098,-0.18,8.055,-0.558,94.965,-1.119,0.224,0.336,-29.5,1.062,-26.625,1.414,-0.102,9.906,0.674,-0.055,-0.044,-0.735,1,-45.767,-8.875,0,27.675,2,41.519424,-86.239815,0,0.181,0.055166108,252.100006,11,46,54,48,12
112,8.544378,0,-0.07,-0.141,0.148,8.083,-0.734,94.987,-4.029,-0.448,-0.671,-26.375,5,-28.5,1.414,-0.133,9.883,0.674,-0.056,-0.043,-0.736,1,-38.402,-8.129,0,27.675,2,41.519424,-86.239815,0,0.15,0.045717769,252.100006,11,46,54,56,12
113,8.629378,0,0.168,-0.055,-0.094,8.112,-0.94,95.007,2.574,0.224,0,-29.875,4,-27.688,1.406,-0.148,9.898,0.673,-0.058,-0.042,-0.736,1,-42.611,-8.563,0,27.675,2,41.519424,-86.239815,0,0.182,0.055470893,252.100006,11,46,54,64,12
114,8.704378,0,-0.008,0.059,-0.02,8.092,-0.713,94.998,2.574,0.448,0.448,-27.312,-0.188,-27.75,1.422,-0.117,9.898,0.674,-0.056,-0.043,-0.736,1,-42.611,-8.563,0,27.675,2,41.519424,-86.239815,0,0.236,0.07192929,252.100006,11,46,54,72,12
115,8.784378,0,-0.117,-0.027,-0.133,8.079,-0.532,94.972,-2.126,-0.112,-0.112,-28.625,3.75,-28.562,1.414,-0.117,9.891,0.674,-0.055,-0.044,-0.735,1,-35.246,-7.788,0,27.675,2,41.519424,-86.239815,0,0.078,0.02377324,252.100006,11,46,54,80,12
116,8.821378,0,0.051,-0.035,-0.094,8.1,-0.768,94.99,-2.574,-0.112,-0.224,-28.75,1.062,-27.125,1.406,-0.133,9.898,0.674,-0.057,-0.043,-0.736,1,-35.246,-7.788,0,27.675,2,41.519424,-86.239815,0,0.137,0.041755562,252.100006,11,46,54,84,12
117,8.904378,0,0.082,-0.062,-0.02,8.112,-0.817,94.986,-0.448,-0.112,0.112,-28.875,2.438,-27.875,1.414,-0.133,9.898,0.674,-0.057,-0.043,-0.736,1,-42.611,-8.563,0,27.675,2,41.519424,-86.239815,0,0.12,0.036574215,252.100006,11,46,54,92,12
118,8.951378,0,0,0.035,0.02,8.11,-0.778,94.984,2.014,0.224,0.112,-26.688,4.312,-27.938,1.422,-0.125,9.898,0.674,-0.057,-0.043,-0.736,1,-42.611,-8.563,0,27.675,2,41.519424,-86.239815,0,0.138,0.042060347,252.100006,11,46,54,96,12
119,8.979378,0,-0.078,-0.012,-0.059,8.103,-0.629,94.984,0.783,0,0.112,-26.938,-0.375,-26.938,1.422,-0.117,9.898,0.674,-0.056,-0.044,-0.736,1,-38.402,-8.129,0,27.675,2,41.519424,-86.239815,0,0.187,0.056994819,252.100006,11,46,55,0,12
120,9.064378,0,-0.031,0.02,-0.02,8.103,-0.629,94.984,-0.224,0,0.112,-26.625,4.562,-29.625,1.422,-0.109,9.898,0.674,-0.056,-0.044,-0.736,1,-42.611,-8.563,0,27.675,2,41.519424,-86.239815,0,0.105,0.032002438,252.100006,11,46,55,8,12
121,9.101378,0,0.043,0.105,-0.051,8.104,-0.639,94.984,-0.56,-0.112,-0.112,-28.625,3.812,-29,1.414,-0.109,9.891,0.674,-0.056,-0.044,-0.736,1,-38.402,-8.129,0,27.675,2,41.519424,-86.239815,0,0.174,0.053032612,252.100006,11,46,55,12,12
122,9.181378,0,0.043,0.027,0.105,8.11,-0.682,95,-0.783,-0.112,-0.224,-27.125,4.812,-28.875,1.414,-0.109,9.891,0.674,-0.056,-0.043,-0.736,1,-38.402,-8.129,0,27.675,2,41.519424,-86.239815,0,0.076,0.02316367,252.100006,11,46,55,20,12
123,9.220378,0,-0.078,-0.164,0.066,8.122,-0.721,95.008,0,0.112,-0.112,-26.938,0.562,-28.75,1.422,-0.117,9.891,0.674,-0.056,-0.043,-0.736,1,-42.611,-8.563,0,27.675,2,41.519424,-86.239815,0,0.008,0.002438281,252.100006,11,46,55,24,12
124,9.261378,0,0.043,-0.043,0.105,8.117,-0.706,95.014,0.56,0.224,-0.112,-29.5,1.125,-27.125,1.414,-0.125,9.891,0.673,-0.056,-0.043,-0.736,1,-42.611,-8.563,0,27.675,2,41.519424,-86.239815,0,0.191,0.058213959,252.100006,11,46,55,28,12
125,9.379378,0,0.082,0.043,-0.02,8.11,-0.682,95.01,0.671,0.112,0.112,-28.25,0.562,-27.875,1.414,-0.133,9.898,0.674,-0.056,-0.043,-0.736,1,-38.402,-8.129,0,27.675,2,41.519424,-86.239815,0,0.083,0.025297165,252.100006,11,46,55,40,12
126,9.463378,0,-0.117,0.004,-0.02,8.105,-0.668,95.002,-1.231,0.224,-0.112,-27.75,2.875,-27.562,1.422,-0.133,9.898,0.674,-0.056,-0.043,-0.736,1,-42.611,-8.563,0,27.675,2,41.519424,-86.239815,0,0.044,0.013410546,252.100006,11,46,55,48,12
127,9.543378,0,0.051,-0.332,0.066,8.11,-0.767,95,0.56,0,-0.448,-26.75,2.062,-28.75,1.414,-0.141,9.891,0.674,-0.057,-0.043,-0.736,1,-35.246,-7.788,0,27.675,2,41.519424,-86.239815,0,0.051,0.015544041,252.100006,11,46,55,56,12
128,9.667378,0,-0.117,0.379,-0.172,8.106,-0.685,95.04,1.455,0.448,-0.895,-29,0.5,-27,1.414,-0.164,9.898,0.673,-0.056,-0.043,-0.736,1,-42.611,-8.563,0,27.675,2,41.519424,-86.239815,0,0.091,0.027735447,252.100006,11,46,55,68,12
129,9.744378,0,-0.164,0.426,0.105,8.09,-0.649,95.062,-1.007,-0.336,-0.671,-28.75,2,-28.938,1.422,-0.164,9.898,0.673,-0.056,-0.043,-0.736,1,-38.402,-8.129,0,27.675,2,41.519424,-86.239815,0,0.083,0.025297165,252.100006,11,46,55,76,12
130,9.780378,0,0,0.129,-0.059,8.098,-0.825,95.105,-1.902,0.336,0.895,-26.375,1,-26.438,1.422,-0.18,9.898,0.673,-0.057,-0.042,-0.736,1,-35.246,-7.788,0,27.675,2,41.519424,-86.239815,0,0.201,0.06126181,252.100006,11,46,55,80,12
131,9.863378,0,0,0.09,-0.02,8.101,-0.887,95.066,0.112,-0.112,0.336,-26.688,0.938,-27.688,1.422,-0.18,9.898,0.673,-0.057,-0.042,-0.736,1,-38.402,-8.129,0,27.675,2,41.519424,-86.239815,0,0.054,0.016458397,252.100006,11,46,55,88,12
132,9.900378,0,0.035,-0.133,-0.012,8.109,-0.856,95.073,1.679,0,-0.336,-27.5,1,-27.625,1.422,-0.156,9.891,0.673,-0.057,-0.042,-0.736,1,-38.402,-8.129,0,27.675,2,41.519424,-86.239815,0,0.088,0.026821091,252.100006,11,46,55,92,12
133,9.949378,0,0.344,0.09,0.25,8.119,-0.74,95.091,0.671,0.112,-0.224,-29.062,1.562,-28.125,1.422,-0.148,9.898,0.673,-0.057,-0.043,-0.736,1,-42.611,-8.563,0,27.675,2,41.519424,-86.239815,0,0.061,0.018591893,252.100006,11,46,55,96,12
134,10.023378,0,0.113,0.355,0.059,8.118,-0.729,95.111,-0.783,0.448,-0.224,-27.812,0.562,-28.375,1.422,-0.141,9.898,0.673,-0.057,-0.043,-0.736,1,-38.402,-8.129,0,27.675,2,41.519424,-86.239815,0,0.052,0.015848827,252.100006,11,46,56,4,12
135,10.069378,0,-0.156,0.137,0.105,8.117,-0.794,95.102,-0.895,-0.112,0.336,-25.875,1.625,-28.688,1.422,-0.148,9.891,0.673,-0.057,-0.043,-0.736,1,-35.246,-7.788,0,27.675,2,41.519424,-86.239815,0,0.122,0.037183785,252.100006,11,46,56,8,12
136,10.144378,0,-0.309,-0.133,-0.172,8.113,-0.821,95.08,1.119,-0.112,0.56,-28.438,1.625,-27.375,1.422,-0.148,9.898,0.673,-0.057,-0.042,-0.736,1,-38.402,-8.129,0,27.675,2,41.519424,-86.239815,0,0.057,0.017372752,252.100006,11,46,56,16,12
137,10.260378,0,0.113,0.066,0.172,8.118,-0.722,95.062,2.126,0,-1.007,-27.5,1.375,-28.188,1.422,-0.117,9.898,0.673,-0.056,-0.043,-0.736,1,-42.611,-8.563,0,27.675,2,41.519424,-86.239815,0,0.218,0.066443158,252.100006,11,46,56,28,12
138,10.344378,0,-0.156,0.332,0.059,8.134,-0.63,95.094,-1.119,-0.336,0.224,-27.125,1.25,-27.75,1.422,-0.117,9.898,0.673,-0.056,-0.044,-0.736,1,-38.402,-8.129,0,27.675,2,41.519424,-86.239815,0,0.061,0.018591893,252.100006,11,46,56,36,12
139,10.378457,0,0.039,-0.395,-0.102,8.123,-0.727,95.067,0.224,-0.224,-0.336,-29.5,1.625,-28.5,1.383,-0.086,9.898,0.673,-0.057,-0.043,-0.736,1,-35.246,-7.788,0,27.675,2,41.519424,-86.239815,0,0.142,0.043279488,252.100006,11,46,56,40,12
140,10.463378,0,0.039,-0.309,-0.094,8.121,-0.676,95.085,0.56,0,-0.336,-27.312,3.312,-28.562,1.375,-0.094,9.906,0.673,-0.056,-0.043,-0.736,1,-38.402,-8.129,0,27.675,2,41.519424,-86.239815,0,0.152,0.046327339,252.100006,11,46,56,48,12
141,10.542378,0,0.051,0.113,-0.141,8.097,-0.701,95.094,-0.448,0,-0.112,-27.75,-0.562,-26.938,1.414,-0.133,9.906,0.673,-0.056,-0.043,-0.736,1,-38.402,-8.129,0,27.675,2,41.519424,-86.239815,0,0.113,0.034440719,252.100006,11,46,56,56,12
142,10.579378,0,0.008,0.121,-0.102,8.105,-0.766,95.089,-0.783,-0.224,0.224,-28.875,0.125,-28.625,1.422,-0.141,9.906,0.673,-0.057,-0.043,-0.736,1,-42.611,-8.563,0,27.675,2,41.519424,-86.239815,0,0.047,0.014324901,252.100006,11,46,56,60,12
143,10.664378,0,-0.461,-1.25,-0.102,8.094,-0.715,95.118,0.895,0.224,-0.671,-28.938,0.375,-28.25,1.422,-0.133,9.906,0.673,-0.056,-0.043,-0.736,1,-35.246,-7.788,0,27.675,2,41.519424,-86.239822,0,0.051,0.015544041,252.100006,11,46,56,68,12
144,10.699378,0,0.266,-0.242,-0.293,8.093,-0.601,95.111,1.343,-0.224,0.448,-28.875,2,-27.375,1.422,-0.117,9.906,0.673,-0.056,-0.044,-0.736,1,-35.246,-7.788,0,27.675,2,41.519424,-86.239815,0,0.127,0.038707711,252.100006,11,46,56,72,12
145,10.782378,0,0.035,-0.125,-0.141,8.107,-0.585,95.112,0,-0.336,0.224,-27.625,1.875,-27.438,1.422,-0.117,9.906,0.673,-0.056,-0.044,-0.736,1,-35.246,-7.788,0,27.675,2,41.519424,-86.239815,0,0.066,0.020115818,252.100006,11,46,56,80,12
146,10.819378,0,-0.156,-0.109,0.012,8.114,-0.62,95.109,-0.783,0,0,-29.312,-0.125,-26.938,1.422,-0.133,9.906,0.673,-0.056,-0.044,-0.736,1,-35.246,-7.788,0,27.675,2,41.519424,-86.239822,0,0.059,0.017982322,252.100006,11,46,56,84,12
147,10.902378,0,-0.117,0.043,-0.18,8.111,-0.675,95.105,0.783,0.112,-0.336,-26.438,2.5,-28.062,1.422,-0.133,9.906,0.673,-0.056,-0.043,-0.736,1,-38.402,-8.129,0,27.675,2,41.519424,-86.239822,0,0.081,0.024687595,252.100006,11,46,56,92,12
148,10.957378,0,0.121,-0.25,0.09,8.105,-0.641,95.103,1.679,0,-0.112,-28.562,0.25,-27.875,1.414,-0.117,9.906,0.673,-0.056,-0.044,-0.736,1,-35.246,-7.788,0,27.675,2,41.519424,-86.239822,0,0.032,0.009753124,252.100006,11,46,56,96,12
149,11.023378,0,0.043,-0.172,0.051,8.114,-0.505,95.117,0.783,-0.112,-0.112,-29.188,1.438,-27.25,1.414,-0.109,9.906,0.673,-0.055,-0.044,-0.736,1,-32.09,-7.431,0,27.675,2,41.519424,-86.239822,0,0.177,0.053946967,252.199997,11,46,57,4,12
150,11.068378,0,-0.102,0.172,-0.18,8.099,-0.513,95.087,-0.336,0.448,0.671,-28.812,-1.438,-26.625,1.406,-0.109,9.906,0.673,-0.055,-0.044,-0.736,1,-38.402,-8.129,0,27.675,2,41.519424,-86.239822,0,0.093,0.028345017,252.199997,11,46,57,8,12
151,11.143378,0,-0.238,0.141,-0.117,8.102,-0.583,95.077,-1.79,-0.112,-0.112,-27.125,4.375,-28,1.406,-0.117,9.906,0.673,-0.056,-0.044,-0.736,1,-35.246,-7.788,0,27.675,2,41.519424,-86.239822,0,0.145,0.044193843,252.199997,11,46,57,16,12
152,11.269378,0,0.082,-0.211,0.227,8.108,-0.712,95.083,-2.91,-0.224,-0.224,-29,2.375,-25.812,1.375,-0.078,9.883,0.673,-0.056,-0.043,-0.736,1,-32.09,-7.431,0,27.675,2,41.519424,-86.239822,0,0.123,0.037488571,252.199997,11,46,57,28,12
153,11.388378,0,0.199,-0.102,0.004,8.104,-0.839,95.104,2.35,0.112,0.448,-28.5,2.625,-27.562,1.406,-0.141,9.914,0.673,-0.057,-0.042,-0.736,1,-38.402,-8.129,0,27.675,2,41.519424,-86.239822,0,0.049,0.014934471,252.300003,11,46,57,40,12
154,11.462378,0,-0.055,-0.234,-0.156,8.08,-0.638,95.088,-1.119,0.224,0.112,-28.312,1.125,-28.062,1.438,-0.125,9.922,0.673,-0.056,-0.043,-0.736,1,-35.246,-7.788,0,27.675,2,41.519424,-86.239822,0,0.069,0.021030174,252.300003,11,46,57,48,12
155,11.544379,0,-0.109,0.312,0.043,8.088,-0.724,95.052,-1.79,-0.224,0.112,-28.438,2.062,-27.875,1.414,-0.133,9.914,0.673,-0.056,-0.043,-0.736,1,-35.246,-7.788,0,27.675,2,41.519424,-86.239822,0,0.096,0.029259372,252.300003,11,46,57,56,12
156,11.617378,0,0.039,-0.379,-0.082,8.105,-0.767,95.069,1.231,-0.448,0.336,-27.312,3.312,-28.562,1.383,-0.102,9.922,0.673,-0.057,-0.043,-0.736,1,-38.402,-8.129,0,27.675,2,41.519424,-86.239822,0,0.123,0.037488571,252.399994,11,46,57,64,12
157,11.667378,0,0.168,0.066,0.004,8.089,-0.62,95.06,1.007,0.448,-0.112,-26.5,2.75,-27.75,1.398,-0.117,9.914,0.673,-0.056,-0.044,-0.736,1,-35.246,-7.788,0,27.675,2,41.519424,-86.239822,0,0.064,0.019506248,252.399994,11,46,57,68,12
158,11.707378,0,-0.047,0.34,-0.066,8.093,-0.605,95.051,0,0,0.112,-29.25,3.062,-29.688,1.422,-0.125,9.906,0.673,-0.056,-0.044,-0.736,1,-42.611,-8.563,0,27.675,2,41.519424,-86.239822,0,0.015,0.004571777,252.399994,11,46,57,72,12
159,11.781378,0,-0.316,-0.133,0.125,8.089,-0.621,95.04,-0.448,0,0.448,-28.562,-1.062,-25.562,1.43,-0.109,9.906,0.673,-0.056,-0.044,-0.736,1,-38.402,-8.129,0,27.675,2,41.519424,-86.239822,0,0.145,0.044193843,252.399994,11,46,57,80,12
160,11.827378,0,0.031,-0.18,0.219,8.104,-0.636,95.034,0,0.224,-0.336,-26.938,3.312,-29.062,1.391,-0.109,9.898,0.673,-0.056,-0.044,-0.736,1,-42.611,-8.563,0,27.675,2,41.519424,-86.239822,0,0.201,0.06126181,252.399994,11,46,57,84,12
161,11.946378,0,0.305,-0.059,0.059,8.119,-0.628,95.069,-0.336,-1.007,-0.783,-27.625,2,-27.875,1.383,-0.109,9.898,0.673,-0.056,-0.044,-0.736,1,-38.402,-8.129,0,27.675,2,41.519424,-86.239822,0,0.164,0.049984761,252.399994,11,46,57,96,12
162,12.020378,0,0.352,0.324,0.105,8.109,-0.635,95.108,0.336,0.112,-0.336,-27.312,-0.062,-28.312,1.414,-0.109,9.891,0.673,-0.056,-0.044,-0.736,1,-35.246,-7.788,0,27.675,2,41.519424,-86.239822,0,0.194,0.059128315,252.399994,11,46,58,4,12
163,12.070378,0,-0.262,-0.309,0.02,8.1,-0.647,95.087,0.448,0,0.112,-28.188,0.188,-27.5,1.414,-0.086,9.898,0.673,-0.056,-0.044,-0.736,1,-38.402,-8.129,0,27.675,2,41.519424,-86.239822,0,0.181,0.055166108,252.399994,11,46,58,8,12
164,12.140378,0,-0.086,-0.027,0.051,8.098,-0.597,95.091,0.112,-0.112,-0.224,-27.125,0.875,-27.312,1.398,-0.102,9.906,0.673,-0.056,-0.044,-0.736,1,-38.402,-8.129,0,27.675,2,41.519424,-86.239822,0,0.137,0.041755562,252.399994,11,46,58,16,12
165,12.187378,0,-0.062,0.242,-0.066,8.103,-0.601,95.101,-0.56,-0.224,-0.56,-27.812,3.188,-27.75,1.367,-0.102,9.906,0.673,-0.056,-0.044,-0.736,1,-35.246,-7.788,0,27.675,2,41.519424,-86.239822,0,0.086,0.026211521,252.399994,11,46,58,20,12
166,12.263378,0,0.199,0.074,0.02,8.105,-0.649,95.132,-1.007,-0.224,-0.336,-27.625,2.75,-28.875,1.375,-0.086,9.898,0.673,-0.056,-0.044,-0.736,1,-35.246,-7.788,0,27.675,2,41.519424,-86.239822,0,0.088,0.026821091,252.399994,11,46,58,28,12
167,12.384378,0,0.48,-0.09,-0.164,8.106,-0.667,95.151,-0.224,0.112,0.448,-27.938,1.312,-27.375,1.398,-0.078,9.891,0.673,-0.056,-0.043,-0.737,1,-42.611,-8.563,0,27.675,2,41.519424,-86.239822,0,0.088,0.026821091,252.399994,11,46,58,40,12
168,12.458378,0,-0.148,0.141,-0.043,8.101,-0.664,95.126,-0.224,0.336,0.895,-26.812,1.438,-27,1.414,-0.078,9.883,0.673,-0.056,-0.043,-0.736,1,-45.767,-8.875,0,27.675,2,41.519424,-86.239822,0,0.135,0.041145992,252.399994,11,46,58,48,12
169,12.538378,0,-0.117,0.227,-0.012,8.065,-0.644,95.078,-0.336,-0.112,0.224,-30.125,2.812,-27.562,1.422,-0.086,9.891,0.673,-0.056,-0.043,-0.736,1,-45.767,-8.875,0,27.675,2,41.519424,-86.239822,0,0.16,0.04876562,252.399994,11,46,58,56,12
170,12.578378,0,0.215,0.363,0.266,8.104,-0.633,95.079,3.917,-0.448,1.007,-28.625,0.938,-28.438,1.438,-0.055,9.883,0.673,-0.056,-0.044,-0.736,1,-45.767,-8.875,0,27.675,2,41.519424,-86.239822,0,0.208,0.063395306,252.399994,11,46,58,60,12
171,12.660378,0,0.176,-0.082,-0.043,8.128,-0.403,95.01,3.469,0.448,1.902,-28.812,-1.75,-26.625,1.438,-0.047,9.883,0.674,-0.055,-0.045,-0.736,1,-48.923,-9.176,0,27.675,2,41.519424,-86.239822,0,0.064,0.019506248,252.399994,11,46,58,68,12
172,12.786378,0,-0.477,-0.363,0.258,8.118,-0.295,94.934,-0.895,-0.112,0.448,-29.562,1.875,-27.75,1.445,-0.023,9.883,0.674,-0.054,-0.046,-0.735,1,-45.767,-8.875,0,27.675,2,41.519424,-86.239822,0,0.155,0.047241695,252.399994,11,46,58,80,12
173,12.860378,0,0.098,0.242,-0.004,8.14,-0.352,94.954,-0.783,0,-0.224,-28.562,3,-28.062,1.438,-0.062,9.883,0.674,-0.054,-0.046,-0.735,1,-45.767,-8.875,0,27.675,2,41.519424,-86.239822,0,0.142,0.043279488,252.399994,11,46,58,88,12
174,12.905378,0,0.215,-0.289,-0.043,8.159,-0.432,95.003,-0.336,0,-0.336,-28.688,0.75,-27.188,1.438,-0.062,9.883,0.674,-0.055,-0.045,-0.736,1,-42.611,-8.563,0,27.675,2,41.519424,-86.239822,0,0.091,0.027735447,252.399994,11,46,58,92,12
175,12.945378,0,0.215,-0.051,0.148,8.176,-0.466,95.001,-1.007,0.112,0.56,-25.5,0.875,-28.25,1.445,-0.07,9.875,0.674,-0.055,-0.045,-0.736,1,-56.288,-9.842,0,27.675,2,41.519424,-86.239822,0,0.049,0.014934471,252.399994,11,46,58,96,12
176,13.066378,0,-0.016,0.035,-0.035,8.168,-0.526,95.007,-2.126,0.224,-0.336,-29.5,1.5,-27.688,1.438,-0.086,9.875,0.674,-0.056,-0.045,-0.736,1,-56.288,-9.842,0,27.675,2,41.519424,-86.239822,0,0.039,0.01188662,252.399994,11,46,59,8,12
177,13.187378,0,0.035,0.027,0.156,8.198,-0.637,95.028,3.245,-0.448,-0.224,-27.812,2.75,-26.875,1.453,-0.094,9.875,0.673,-0.056,-0.044,-0.736,1,-45.767,-8.875,0,27.675,2,41.519424,-86.239822,0,0.076,0.02316367,252.399994,11,46,59,20,12
178,13.306378,0,0.199,0.043,-0.078,8.245,-0.343,95.079,-1.119,0.895,0.783,-27.25,2.25,-28.062,1.453,-0.047,9.883,0.673,-0.055,-0.046,-0.736,1,-42.611,-8.563,0,27.675,2,41.519424,-86.239822,0,0.051,0.015544041,252.399994,11,46,59,32,12
179,13.379378,0,-0.34,-0.004,0.043,8.223,-0.412,95.03,-3.693,0.112,-0.224,-27.875,1.5,-28.688,1.453,-0.117,9.875,0.673,-0.055,-0.046,-0.736,1,-42.611,-8.563,0,27.675,2,41.519424,-86.239822,0,0.116,0.035355075,252.399994,11,46,59,40,12
180,13.501378,0,0.074,-0.188,-0.035,8.285,-0.8,95.061,0.783,-0.448,-0.895,-28.812,1.812,-27.875,1.461,-0.133,9.875,0.673,-0.058,-0.044,-0.736,1,-38.402,-8.129,0,27.675,2,41.519424,-86.239822,0,0.049,0.014934471,252.399994,11,46,59,52,12
181,13.579378,0,-0.023,-0.074,-0.086,8.297,-0.619,95.084,2.574,0.671,0.783,-27.812,4.062,-29.625,1.445,-0.062,9.891,0.673,-0.057,-0.045,-0.736,1,-42.611,-8.563,0,27.675,2,41.519424,-86.239822,0,0.084,0.025601951,252.399994,11,46,59,60,12
182,13.659378,0,-0.254,0.074,-0.012,8.247,-0.389,95.001,-3.581,-0.224,-0.224,-29.5,0.812,-27.188,1.445,-0.102,9.883,0.674,-0.055,-0.046,-0.736,1,-42.611,-8.563,0,27.675,2,41.519424,-86.239822,0,0.1,0.030478513,252.399994,11,46,59,68,12
183,13.704378,0,-0.07,0.027,-0.004,8.283,-0.647,95.047,-1.231,-0.112,-0.895,-29.438,4.125,-28.688,1.453,-0.117,9.883,0.673,-0.057,-0.045,-0.736,1,-42.611,-8.563,0,27.675,2,41.519424,-86.239822,0,0.073,0.022249314,252.399994,11,46,59,72,12
184,13.779378,0,0.168,0.059,0.113,8.291,-0.597,95.051,2.014,0.112,0.336,-29,3.375,-28.188,1.445,-0.109,9.883,0.673,-0.057,-0.045,-0.736,1,-45.767,-8.875,0,27.675,2,41.519424,-86.239822,0,0.176,0.053642182,252.399994,11,46,59,80,12
185,13.824378,0,0.066,-0.102,-0.02,8.286,-0.498,95.038,2.35,0.224,0.336,-29.375,2.562,-26.75,1.43,-0.094,9.898,0.673,-0.056,-0.046,-0.736,1,-38.402,-8.129,0,27.675,2,41.519424,-86.239822,0,0.025,0.007619628,252.399994,11,46,59,84,12
186,13.897378,0,0.066,-0.035,-0.02,8.261,-0.372,95.013,-0.895,0.112,0.112,-28.812,3.125,-30.125,1.43,-0.094,9.898,0.674,-0.055,-0.046,-0.736,1,-42.611,-8.563,0,27.675,2,41.519424,-86.239822,0,0.105,0.032002438,252.399994,11,46,59,92,12
187,13.942378,0,-0.086,0.043,0.02,8.272,-0.639,95.023,-3.581,-0.112,-0.112,-28.5,-0.438,-27.375,1.406,-0.125,9.891,0.673,-0.057,-0.045,-0.736,1,-45.767,-8.875,0,27.675,2,41.519424,-86.239822,0,0.064,0.019506248,252.399994,11,46,59,96,12
188,14.018378,0,-0.055,-0.012,0.105,8.274,-0.679,95.025,-0.448,-0.224,-0.224,-26.938,2.812,-27.75,1.391,-0.109,9.891,0.673,-0.057,-0.044,-0.736,1,-48.923,-9.176,0,27.675,2,41.519424,-86.239822,0,0.145,0.044193843,252.399994,11,47,0,4,12
189,14.142378,0,0.184,-0.18,-0.086,8.25,-0.59,95.027,1.679,0.224,0.448,-28.25,4,-28.75,1.398,-0.094,9.891,0.673,-0.057,-0.045,-0.736,1,-42.611,-8.563,0,27.675,2,41.519424,-86.239822,0,0.204,0.062176166,252.399994,11,47,0,16,12
190,14.184378,0,-0.156,0.109,-0.227,8.203,-0.407,94.985,2.574,0.336,0.336,-28.375,1.438,-27.812,1.422,-0.086,9.914,0.674,-0.055,-0.046,-0.735,1,-42.611,-8.563,0,27.675,2,41.519424,-86.239822,0,0.233,0.071014934,252.399994,11,47,0,20,12
191,14.304378,0,-0.148,0.043,-0.18,8.206,-0.486,94.98,-1.902,-0.224,-0.112,-26.5,0.125,-28.438,1.414,-0.094,9.906,0.674,-0.056,-0.045,-0.735,1,-45.767,-8.875,0,27.675,2,41.519424,-86.239822,0,0.116,0.035355075,252.399994,11,47,0,32,12
192,14.377378,0,0.145,-0.043,-0.012,8.209,-0.545,94.99,0.895,0.336,0.448,-26.625,0.125,-26.812,1.391,-0.086,9.891,0.674,-0.056,-0.045,-0.736,1,-42.611,-8.563,0,27.675,2,41.519424,-86.239822,0,0.164,0.049984761,252.399994,11,47,0,40,12
193,14.457378,0,-0.156,-0.004,-0.059,8.181,-0.461,94.997,0.112,0.112,-0.224,-26.938,2.75,-27.375,1.414,-0.086,9.898,0.674,-0.055,-0.045,-0.736,1,-42.611,-8.563,0,27.675,2,41.519424,-86.239822,0,0.199,0.06065224,252.399994,11,47,0,48,12
194,14.503378,0,-0.062,-0.027,0.012,8.177,-0.496,94.999,-1.455,0.112,0.224,-27.062,0.688,-27.75,1.414,-0.102,9.898,0.674,-0.055,-0.045,-0.736,1,-35.246,-7.788,0,27.675,2,41.519424,-86.239822,0,0.167,0.050899116,252.300003,11,47,0,52,12
195,14.623378,0,0.09,-0.059,-0.02,8.176,-0.591,94.992,-1.567,-0.224,-0.224,-28.125,2.5,-27.25,1.414,-0.109,9.898,0.674,-0.056,-0.044,-0.736,1,-38.402,-8.129,0,27.675,2,41.519424,-86.239822,0,0.069,0.021030174,252.300003,11,47,0,64,12
196,14.663378,0,0.035,0.027,0.09,8.183,-0.634,95.009,0,0.224,0.336,-28.438,-1.938,-25.812,1.422,-0.117,9.898,0.674,-0.056,-0.044,-0.736,1,-38.402,-8.129,0,27.675,2,41.519424,-86.239822,0,0.138,0.042060347,252.300003,11,47,0,68,12
197,14.737378,0,-0.078,-0.094,-0.148,8.163,-0.626,94.99,0.671,0.224,0.224,-26.625,3.625,-27.562,1.422,-0.109,9.906,0.674,-0.056,-0.044,-0.736,1,-38.402,-8.129,0,27.675,2,41.519424,-86.239822,0,0.017,0.005181347,252.399994,11,47,0,76,12
198,14.783378,0,-0.109,0.164,0.09,8.155,-0.573,94.984,0.895,0,-0.224,-27.125,1.25,-27.375,1.414,-0.102,9.906,0.674,-0.056,-0.044,-0.736,1,-35.246,-7.788,0,27.675,2,41.519424,-86.239822,0,0.034,0.010362694,252.399994,11,47,0,80,12
199,14.867378,0,-0.023,0.082,-0.066,8.16,-0.557,94.995,-1.007,-0.112,0,-27.125,1.25,-27.375,1.406,-0.094,9.906,0.674,-0.056,-0.044,-0.736,1,-35.246,-7.788,0,27.675,2,41.519424,-86.239822,0,0.169,0.051508686,252.300003,11,47,0,88,12
200,14.943378,0,0.09,-0.086,0.066,8.154,-0.657,94.987,-1.79,-0.224,-0.336,-29,2.875,-27.25,1.414,-0.117,9.891,0.674,-0.056,-0.044,-0.736,1,-35.246,-7.788,0,27.675,2,41.519424,-86.239822,0,0.005,0.001523926,252.300003,11,47,0,96,12
201,14.982378,0,0.035,-0.043,0.059,8.167,-0.714,95.013,1.79,0.224,0.224,-29.25,2.688,-29.25,1.422,-0.133,9.898,0.673,-0.057,-0.044,-0.736,1,-38.402,-8.129,0,27.675,2,41.519424,-86.239822,0,0.132,0.040231637,252.300003,11,47,1,0,12
202,15.103378,0,0.035,-0.012,-0.027,8.153,-0.626,95,2.686,0.336,0.56,-28.688,0.875,-28.125,1.43,-0.109,9.898,0.674,-0.056,-0.044,-0.736,1,-35.246,-7.788,0,27.675,2,41.519424,-86.239822,0,0.257,0.078329778,252.300003,11,47,1,12,12
203,15.186378,0,-0.078,0.074,0.09,8.143,-0.514,94.983,-1.231,0.112,0.224,-28,5.188,-28.625,1.422,-0.094,9.906,0.674,-0.055,-0.045,-0.736,1,-32.09,-7.431,0,27.675,2,41.519424,-86.239822,0,0.086,0.026211521,252.300003,11,47,1,20,12
204,15.223378,0,0.051,0.051,-0.027,8.145,-0.573,94.984,-2.238,-0.112,-0.224,-27.438,0.312,-27.188,1.406,-0.102,9.906,0.674,-0.056,-0.044,-0.736,1,-42.611,-8.563,0,27.675,2,41.519424,-86.239822,0,0.214,0.065224017,252.300003,11,47,1,24,12
205,15.297378,0,-0.023,-0.051,-0.102,8.148,-0.736,94.992,-2.686,0,-0.224,-27.938,1.812,-28.375,1.406,-0.117,9.906,0.674,-0.057,-0.043,-0.736,1,-35.246,-7.788,0,27.675,2,41.519424,-86.239822,0,0.219,0.066747943,252.300003,11,47,1,32,12
206,15.342378,0,0.035,0.066,0.297,8.151,-0.806,94.987,1.343,0,-0.112,-29.812,0.625,-27.562,1.414,-0.117,9.898,0.674,-0.057,-0.043,-0.736,1,-38.402,-8.129,0,27.675,2,41.519424,-86.239822,0,0.235,0.071624505,252.300003,11,47,1,36,12
207,15.417378,0,-0.109,-0.285,-0.172,8.145,-0.686,94.995,2.686,0.112,0.112,-26.75,2,-28.438,1.414,-0.109,9.898,0.674,-0.056,-0.044,-0.736,1,-38.402,-8.129,0,27.675,2,41.519424,-86.239822,0,0.245,0.074672356,252.300003,11,47,1,44,12
208,15.462378,0,0.008,0.035,0.555,8.139,-0.539,94.971,4.476,1.007,-0.112,-30.625,-2.438,-26.812,1.414,-0.086,9.898,0.674,-0.055,-0.044,-0.735,1,-38.402,-8.129,0,27.675,2,41.519424,-86.239822,0,0.062,0.018896678,252.300003,11,47,1,48,12
209,15.546378,0,-0.102,0.027,-0.148,8.095,-0.338,94.97,-1.679,0,0.336,-29.062,0.375,-26.75,1.406,-0.086,9.914,0.674,-0.054,-0.046,-0.735,1,-45.767,-8.875,0,27.675,2,41.519424,-86.239822,0,0.128,0.039012496,252.300003,11,47,1,56,12
210,15.625378,0,-0.102,-0.082,-0.301,8.117,-0.835,94.95,-6.379,0.224,0.56,-29.25,2.25,-28.375,1.414,-0.156,9.914,0.674,-0.057,-0.042,-0.735,1,-32.09,-7.431,0,27.675,2,41.519424,-86.239822,0,0.208,0.063395306,252.300003,11,47,1,64,12
211,15.672378,0,0.035,-0.062,0.043,8.155,-0.791,94.988,2.686,-0.112,0.224,-26.688,2.25,-30.188,1.422,-0.164,9.914,0.674,-0.057,-0.043,-0.736,1,-38.402,-8.129,0,27.675,2,41.519424,-86.239822,0,0.15,0.045717769,252.300003,11,47,1,68,12
212,15.737378,0,0.082,-0.133,-0.043,8.133,-0.63,94.955,4.924,1.007,0.56,-27.688,2.688,-28.562,1.422,-0.125,9.922,0.674,-0.056,-0.044,-0.735,1,-32.09,-7.431,0,27.675,2,41.519424,-86.239822,0,0.206,0.062785736,252.300003,11,47,1,76,12
213,15.826378,0,0.043,0.18,-0.004,8.097,-0.391,94.917,1.343,0.112,-0.112,-26.812,2.25,-28.062,1.414,-0.086,9.922,0.674,-0.054,-0.045,-0.735,1,-32.09,-7.431,0,27.675,2,41.519424,-86.239822,0,0.1,0.030478513,252.300003,11,47,1,84,12
214,15.871378,0,0.074,0.035,0.258,8.093,-0.405,94.931,-4.141,-0.448,-0.112,-28.25,4.312,-28.875,1.422,-0.109,9.93,0.674,-0.054,-0.045,-0.735,1,-27.881,-6.927,0,27.675,2,41.519424,-86.239822,0,0.13,0.039622066,252.300003,11,47,1,88,12
215,15.945378,0,0.035,-0.086,0.109,8.128,-0.74,94.952,-4.029,-0.224,-0.336,-27.438,0.375,-27.625,1.422,-0.141,9.93,0.674,-0.057,-0.043,-0.735,1,-35.246,-7.788,0,27.675,2,41.519424,-86.239822,0,0.287,0.087473331,252.300003,11,47,1,96,12
216,15.991378,0,0.051,0.051,-0.105,8.142,-0.838,94.965,2.35,0.783,0.336,-28.312,1.062,-27.375,1.414,-0.109,9.945,0.674,-0.057,-0.043,-0.736,1,-32.09,-7.431,0,27.675,2,41.519424,-86.239822,0,0.177,0.053946967,252.199997,11,47,2,0,12
217,16.074377,0,-0.07,-0.156,0.074,8.107,-0.618,94.926,4.252,0.112,0.56,-26.188,2.938,-27.438,1.406,-0.086,9.938,0.674,-0.056,-0.044,-0.735,1,-32.09,-7.431,0,27.675,2,41.519424,-86.239822,0,0.387,0.117951844,252.199997,11,47,2,8,12
218,16.179379,0,-0.031,-0.051,-0.148,8.104,-0.434,94.934,-0.783,-0.56,-0.112,-28.375,1.75,-27.875,1.406,-0.039,9.914,0.674,-0.055,-0.045,-0.735,1,-24.725,-6.523,0,27.675,2,41.519424,-86.239822,0,0.324,0.098750381,252.199997,11,47,2,20,12
219,16.220379,0,0.043,0.211,0.457,8.109,-0.554,94.93,1.007,-0.224,-0.448,-28.375,-1.625,-27.562,1.414,-0.109,9.906,0.674,-0.055,-0.044,-0.735,1,-14.203,-4.944,0,27.675,2,41.519424,-86.239822,0,0.231,0.070405364,252.199997,11,47,2,24,12
220,16.308378,0,0.008,0.059,0.41,8.099,-0.658,94.938,-0.336,1.455,0.56,-28.125,-0.438,-27.438,1.406,-0.109,9.938,0.674,-0.056,-0.044,-0.735,1,-24.725,-6.523,0,27.675,2,41.519424,-86.239822,0,0.235,0.071624505,252.199997,11,47,2,32,12
221,16.383377,0,-0.156,-0.348,-0.801,8.048,-1.127,94.791,-4.588,0,2.35,-29.312,2.375,-27.562,1.414,-0.141,9.961,0.675,-0.058,-0.04,-0.735,1,-45.767,-8.875,0,27.675,2,41.519424,-86.239822,0,0.209,0.063700091,252.199997,11,47,2,40,12
222,16.541378,0,-0.547,-0.43,-0.508,8.097,-1.469,94.757,-3.357,-0.112,-1.679,-26.688,0.938,-27.875,1.422,-0.234,9.938,0.675,-0.061,-0.038,-0.735,1,-35.246,-7.788,0,27.675,2,41.519424,-86.239822,0,0.123,0.037488571,252.199997,11,47,2,56,12
223,16.583378,0,0.543,-0.066,-0.309,8.17,-1.278,94.889,4.476,1.343,1.567,-27.375,3.062,-27.438,1.422,0.047,9.93,0.674,-0.06,-0.04,-0.735,1,-21.568,-6.092,0,27.675,2,41.519424,-86.239822,0,0.113,0.034440719,252.199997,11,47,2,60,12
224,16.665379,0,0.129,0.031,-0.195,8.001,0.11,94.838,-4.141,0.783,1.007,-27.312,-0.25,-27.562,1.406,0.039,9.922,0.675,-0.051,-0.048,-0.734,1,-32.09,-7.431,0,27.675,2,41.519424,-86.239822,0,0.049,0.014934471,252.199997,11,47,2,68,12
225,16.781378,0,-0.453,0.395,-0.301,8.028,-0.173,94.813,0.336,-1.007,-1.119,-26.625,0.25,-27.25,1.422,-0.016,9.914,0.675,-0.053,-0.046,-0.734,1,-24.725,-6.523,0,27.675,2,41.519424,-86.239822,0,0.041,0.01249619,252.199997,11,47,2,80,12
226,16.863379,0,-0.461,0.426,-0.34,8.155,-0.225,94.914,1.343,-0.112,-0.112,-27,3.312,-27.562,1.43,-0.016,9.898,0.674,-0.054,-0.047,-0.735,1,-27.881,-6.927,0,27.675,2,41.519424,-86.239822,0,0.15,0.045717769,252.199997,11,47,2,88,12
227,16.899378,0,0.367,0.027,-0.059,8.209,-0.558,94.945,-2.126,-0.448,0,-28.812,2.25,-28.812,1.43,-0.023,9.906,0.674,-0.056,-0.045,-0.735,1,-27.881,-6.927,0,27.675,2,41.519424,-86.239822,0,0.1,0.030478513,252.199997,11,47,2,92,12
228,16.950378,0,0.098,-0.281,0.141,8.209,-0.557,94.955,1.343,-0.671,-1.455,-26.438,0,-29.75,1.438,-0.086,9.898,0.674,-0.056,-0.045,-0.735,1,-27.881,-6.927,0,27.675,2,41.519424,-86.239822,0,0.14,0.042669918,252.199997,11,47,2,96,12
229,17.022379,0,-0.18,-0.105,0.066,8.248,-0.428,95.009,3.581,0.112,-0.448,-27.125,1.688,-28.438,1.438,-0.039,9.891,0.674,-0.056,-0.046,-0.736,1,-24.725,-6.523,0,27.675,2,41.519424,-86.239822,0,0.174,0.053032612,252.199997,11,47,3,4,12
230,17.104378,0,-0.055,-0.051,0.18,8.204,-0.218,94.979,-0.895,0.56,0.671,-27.5,2.062,-30.062,1.43,-0.031,9.898,0.674,-0.054,-0.047,-0.735,1,-21.568,-6.092,0,27.675,2,41.519424,-86.239822,0,0.187,0.056994819,252.199997,11,47,3,12,12
231,17.140379,0,-0.133,0.09,0.219,8.222,-0.51,94.988,-5.819,-0.448,0,-26.875,-0.25,-28,1.438,-0.102,9.891,0.674,-0.056,-0.045,-0.736,1,-27.881,-6.927,0,27.675,2,41.519424,-86.239822,0,0.157,0.047851265,252.199997,11,47,3,16,12
232,17.224379,0,-0.254,-0.102,-0.004,8.256,-0.823,95.025,-6.714,-0.671,-0.783,-29.125,2.062,-29.125,1.445,-0.141,9.883,0.673,-0.058,-0.043,-0.736,1,-27.881,-6.927,0,27.675,2,41.519424,-86.239822,0,0.042,0.012800975,252.199997,11,47,3,24,12
233,17.340378,0,0.281,-0.234,-0.043,8.278,-0.985,95.048,5.26,0.112,0.671,-29.062,3.438,-27,1.445,-0.141,9.883,0.673,-0.059,-0.042,-0.736,1,-27.881,-6.927,0,27.675,2,41.519424,-86.239822,0,0.238,0.07253886,252.199997,11,47,3,36,12
234,17.470379,0,-0.016,0.027,-0.156,8.246,-0.48,95.044,-0.56,0.56,0.783,-26.688,0.812,-27,1.43,-0.078,9.891,0.673,-0.056,-0.045,-0.736,1,-32.09,-7.431,0,27.675,2,41.519424,-86.239822,0,0.159,0.048460835,252.199997,11,47,3,48,12
235,17.542377,0,-0.008,-0.035,0.113,8.227,-0.512,95.022,-1.231,-0.112,0,-28.875,2.812,-28.562,1.43,-0.094,9.883,0.673,-0.056,-0.045,-0.736,1,-27.881,-6.927,0,27.675,2,41.519424,-86.239822,0,0.089,0.027125876,252.199997,11,47,3,56,12
236,17.590378,0,0.223,-0.059,0.035,8.238,-0.531,95.031,-1.679,-0.112,-0.336,-29.625,-1.812,-25.812,1.43,-0.102,9.883,0.673,-0.056,-0.045,-0.736,1,-27.881,-6.927,0,27.675,2,41.519424,-86.239822,0,0.11,0.033526364,252.199997,11,47,3,60,12
237,17.663378,0,0.105,-0.164,-0.078,8.239,-0.665,95.021,-1.343,0.112,0.336,-28.375,1.438,-27.875,1.43,-0.117,9.883,0.673,-0.057,-0.044,-0.736,1,-32.09,-7.431,0,27.675,2,41.519424,-86.239822,0,0.154,0.046936909,252.199997,11,47,3,68,12
238,17.740377,0,-0.199,-0.066,0.035,8.228,-0.637,95.003,2.686,0.112,-0.112,-29.938,0.875,-27.188,1.43,-0.109,9.883,0.674,-0.057,-0.044,-0.736,1,-32.09,-7.431,0,27.675,2,41.519424,-86.239822,0,0.143,0.043584273,252.199997,11,47,3,76,12
239,17.857378,0,0.105,0.066,-0.102,8.209,-0.43,95.003,0.671,0.336,0.336,-26.625,0.562,-27.375,1.391,-0.117,9.898,0.674,-0.055,-0.046,-0.736,1,-42.611,-8.563,0,27.675,2,41.519424,-86.239822,0,0.122,0.037183785,252.199997,11,47,3,88,12
240,17.908379,0,-0.031,-0.18,0.113,8.167,-0.508,94.983,-2.35,-0.336,-0.112,-27.562,1.188,-27.062,1.406,-0.125,9.883,0.674,-0.055,-0.045,-0.736,1,-48.923,-9.176,0,27.675,2,41.519424,-86.239822,0,0.265,0.080768059,252.199997,11,47,3,92,12
241,17.949377,0,0.121,-0.055,0.105,8.174,-0.779,94.998,-0.112,0.336,0.56,-28.938,3.125,-28.625,1.414,-0.148,9.891,0.674,-0.057,-0.043,-0.736,1,-48.923,-9.176,0,27.675,2,41.519424,-86.239822,0,0.302,0.092045108,252.199997,11,47,3,96,12
242,18.023378,0,0.035,-0.086,-0.133,8.168,-0.755,94.99,1.343,0.224,-0.112,-28.938,2.625,-27.625,1.414,-0.156,9.898,0.674,-0.057,-0.043,-0.736,1,-48.923,-9.176,0,27.675,2,41.519424,-86.239822,0,0.162,0.04937519,252.199997,11,47,4,4,12
243,18.068378,0,0.027,0.074,0.059,8.164,-0.646,94.998,2.798,0.112,0.112,-27.875,4.312,-28.938,1.43,-0.133,9.898,0.674,-0.056,-0.044,-0.736,1,-48.923,-9.176,0,27.675,2,41.519424,-86.239822,0,0.089,0.027125876,252.199997,11,47,4,8,12
244,18.110378,0,0.066,0.066,0.098,8.144,-0.544,94.976,-0.112,0.224,0.224,-26.812,1.938,-28.062,1.43,-0.117,9.898,0.674,-0.056,-0.044,-0.735,1,-48.923,-9.176,0,27.675,2,41.519424,-86.239822,0,0.204,0.062176166,252.199997,11,47,4,12,12
245,18.227379,0,0.027,0.035,0.012,8.147,-0.604,94.971,-2.91,-0.224,-0.112,-29.5,3.125,-26.5,1.438,-0.125,9.906,0.674,-0.056,-0.044,-0.735,1,-48.923,-9.176,0,27.675,2,41.519424,-86.239822,0,0.236,0.07192929,252.199997,11,47,4,24,12
246,18.270378,0,0,-0.078,0.18,8.184,-0.873,94.997,-3.133,-0.224,-0.336,-25.562,1.5,-28.062,1.414,-0.164,9.898,0.673,-0.058,-0.043,-0.736,1,-45.767,-8.875,0,27.675,2,41.519424,-86.239822,0,0.127,0.038707711,252.199997,11,47,4,28,12
247,18.343378,0,0.121,-0.012,0.098,8.175,-0.789,94.993,2.91,0.56,0.336,-29.625,1.312,-26.5,1.414,-0.156,9.898,0.674,-0.057,-0.043,-0.736,1,-42.611,-8.563,0,27.675,2,41.519424,-86.239822,0,0.135,0.041145992,252.199997,11,47,4,36,12
248,18.422379,0,0.035,0.121,-0.027,8.155,-0.687,94.985,1.343,0.112,0.112,-29.625,2.312,-28.812,1.43,-0.133,9.898,0.674,-0.056,-0.044,-0.736,1,-45.767,-8.875,0,27.675,2,41.519424,-86.239822,0,0.042,0.012800975,252.199997,11,47,4,44,12
249,18.459377,0,-0.047,0.082,-0.059,8.167,-0.736,94.982,-1.902,-0.112,0,-29.5,1,-28.125,1.43,-0.141,9.898,0.674,-0.057,-0.043,-0.736,1,-45.767,-8.875,0,27.675,2,41.519424,-86.239822,0,0.236,0.07192929,252.199997,11,47,4,48,12
250,18.544378,0,-0.078,-0.055,-0.012,8.171,-0.815,94.986,-2.574,0,-0.112,-27.562,2.25,-29.312,1.422,-0.148,9.891,0.674,-0.057,-0.043,-0.736,1,-45.767,-8.875,0,27.675,2,41.519424,-86.239822,0,0.218,0.066443158,252.199997,11,47,4,56,12
251,18.622377,0,0.082,-0.047,0.027,8.184,-0.893,94.995,1.119,0,0,-28.812,1.812,-27.938,1.414,-0.156,9.891,0.673,-0.058,-0.042,-0.736,1,-45.767,-8.875,0,27.675,2,41.519424,-86.239822,0,0.199,0.06065224,252.199997,11,47,4,64,12
252,18.659378,0,0.066,0.004,0.051,8.167,-0.735,94.992,2.574,0.56,0.336,-25.875,-0.438,-25.562,1.43,-0.141,9.914,0.674,-0.057,-0.043,-0.736,1,-42.611,-8.563,0,27.675,2,41.519424,-86.239822,0,0.17,0.051813472,252.199997,11,47,4,68,12
253,18.742378,0,-0.047,0.004,-0.188,8.154,-0.658,94.968,1.79,0.224,0.448,-26.438,2.562,-28.688,1.43,-0.133,9.914,0.674,-0.056,-0.044,-0.735,1,-45.767,-8.875,0,27.675,2,41.519424,-86.239822,0,0.159,0.048460835,252.199997,11,47,4,76,12
254,18.778378,0,-0.117,0.121,0.051,8.153,-0.639,94.964,-1.902,-0.336,-0.224,-29.812,2.875,-26.812,1.422,-0.133,9.906,0.674,-0.056,-0.044,-0.735,1,-45.767,-8.875,0,27.675,2,41.519424,-86.239822,0,0.169,0.051508686,252.199997,11,47,4,80,12
255,18.860378,0,-0.031,0.004,0.012,8.169,-0.776,94.979,-2.126,-0.112,-0.336,-28.75,1,-26.938,1.414,-0.141,9.906,0.674,-0.057,-0.043,-0.736,1,-48.923,-9.176,0,27.675,2,41.519424,-86.239822,0,0.096,0.029259372,252.199997,11,47,4,88,12
256,18.951378,0,-0.031,0.012,-0.027,8.148,-0.861,94.983,-1.007,-0.336,-0.112,-29.438,3.812,-28.75,1.391,-0.141,9.891,0.674,-0.057,-0.042,-0.736,1,-48.923,-9.176,0,27.675,2,41.519424,-86.239822,0,0.186,0.056690034,252.199997,11,47,4,96,12
257,19.022379,0,-0.16,-0.254,-0.012,8.149,-0.753,95.035,1.343,-0.112,-0.448,-29,4.75,-31,1.359,-0.125,9.875,0.673,-0.057,-0.043,-0.736,1,-48.923,-9.176,0,27.675,2,41.519424,-86.239822,0,0.11,0.033526364,252.199997,11,47,5,4,12
258,19.067377,0,0.711,-0.445,-0.301,8.155,-0.786,95.053,-1.119,-0.224,0,-26.438,2.875,-28.75,1.367,-0.133,9.875,0.673,-0.057,-0.043,-0.736,1,-48.923,-9.176,0,27.675,2,41.519424,-86.239822,0,0.192,0.058518744,252.199997,11,47,5,8,12
259,19.141378,0,0.176,-0.285,0.082,8.11,-0.881,95.002,-1.007,0.671,0.56,-26.938,2.625,-26.938,1.359,-0.148,9.875,0.673,-0.057,-0.042,-0.736,1,-45.767,-8.875,0,27.675,2,41.519424,-86.239822,0,0.108,0.032916794,252.199997,11,47,5,16,12
260,19.186378,0,-0.59,0.426,-0.043,8.078,-0.844,94.979,2.35,0.112,-0.224,-29.625,1.5,-27.375,1.359,-0.133,9.875,0.674,-0.057,-0.042,-0.736,1,-45.767,-8.875,0,27.675,2,41.519424,-86.239822,0,0.14,0.042669918,252.199997,11,47,5,20,12
261,19.261377,0,-0.59,0.535,-0.078,8.032,-0.708,94.964,2.238,0.895,1.119,-28.875,1.5,-26.25,1.352,-0.125,9.883,0.674,-0.056,-0.043,-0.736,1,-45.767,-8.875,0,27.675,2,41.519424,-86.239822,0,0.037,0.01127705,252.199997,11,47,5,28,12
262,19.341377,0,0.113,-0.141,0.066,7.978,-0.623,94.936,1.007,0.671,0.448,-26.812,1.438,-27.125,1.344,-0.109,9.891,0.674,-0.055,-0.043,-0.735,1,-45.767,-8.875,0,27.675,2,41.519424,-86.239822,0,0.179,0.054556538,252.199997,11,47,5,36,12
263,19.377378,0,0.527,-0.035,0.188,8.026,-0.669,95.036,-2.574,0,-0.448,-26.25,3.75,-28.562,1.352,-0.133,9.883,0.673,-0.056,-0.043,-0.736,1,-45.767,-8.875,0,27.675,2,41.519424,-86.239822,0,0.255,0.077720207,252.199997,11,47,5,40,12
264,19.427378,0,0.453,-0.094,0.035,8.013,-0.818,95.046,-2.014,0.224,0.783,-27.188,1.562,-27.5,1.352,-0.148,9.883,0.673,-0.056,-0.042,-0.736,1,-48.923,-9.176,0,27.675,2,41.519424,-86.239822,0,0.122,0.037183785,252.199997,11,47,5,44,12
265,19.545378,0,0.184,-0.012,-0.156,7.98,-0.876,95.012,0.56,0.112,0.448,-28.875,1.562,-26.625,1.352,-0.156,9.883,0.673,-0.056,-0.041,-0.736,1,-48.923,-9.176,0,27.675,2,41.519424,-86.239822,0,0.03,0.009143554,252.199997,11,47,5,56,12
266,19.620378,0,0.031,0.02,0.289,7.977,-0.798,94.988,2.126,-0.112,0.448,-26.5,2.625,-27.438,1.352,-0.109,9.891,0.674,-0.056,-0.042,-0.736,1,-45.767,-8.875,0,27.675,2,41.519424,-86.239822,0,0.064,0.019506248,252.199997,11,47,5,64,12
267,19.666376,0,0.184,0.035,-0.324,7.961,-0.549,94.941,1.119,-0.56,0.112,-26.312,1.25,-27.938,1.352,-0.094,9.898,0.674,-0.054,-0.043,-0.735,1,-53.132,-9.562,0,27.675,2,41.519424,-86.239822,0,0.086,0.026211521,252.199997,11,47,5,68,12
268,19.777378,0,0.098,-0.012,-0.211,7.971,-0.456,94.912,1.343,-0.112,0.671,-26.5,2.188,-26.5,1.359,-0.078,9.898,0.674,-0.054,-0.044,-0.735,1,-53.132,-9.562,0,27.675,2,41.519424,-86.239822,0,0.022,0.006705273,252.199997,11,47,5,80,12
269,19.861378,0,-0.137,-0.172,-0.172,7.973,-0.394,94.887,-0.112,0,-0.224,-26.062,1.25,-26.312,1.367,-0.07,9.898,0.674,-0.054,-0.044,-0.735,1,-45.767,-8.875,0,27.675,2,41.519424,-86.239822,0,0.078,0.02377324,252.199997,11,47,5,88,12
270,19.906378,0,0.129,0.172,-0.059,7.968,-0.397,94.907,0,0.224,-0.224,-28.062,-1.188,-26.875,1.367,-0.07,9.898,0.674,-0.054,-0.044,-0.735,1,-45.767,-8.875,0,27.675,2,41.519424,-86.239822,0,0.245,0.074672356,252.199997,11,47,5,92,12
271,19.944378,0,0.09,0.172,-0.059,7.953,-0.392,94.917,0.671,0.112,-0.224,-26.75,2.625,-30.312,1.367,-0.07,9.898,0.674,-0.053,-0.044,-0.735,1,-45.767,-8.875,0,27.675,2,41.519424,-86.239822,0,0.243,0.074062786,252.199997,11,47,5,96,12
272,20.025377,0,0.055,0.094,-0.133,7.947,-0.368,94.919,0.56,0.112,-0.112,-27.812,1,-29.062,1.367,-0.062,9.898,0.674,-0.053,-0.044,-0.735,1,-48.923,-9.176,0,27.675,2,41.519424,-86.239822,0,0.15,0.045717769,252.199997,11,47,6,4,12
273,20.101377,0,0.055,-0.027,0.059,7.948,-0.378,94.918,-0.448,0.112,0.112,-27.188,-2.438,-25.5,1.406,-0.062,9.82,0.674,-0.053,-0.044,-0.735,1,-48.923,-9.176,0,27.675,2,41.519424,-86.239822,0,0.041,0.01249619,252.199997,11,47,6,12,12
274,20.147379,0,0,0.082,0.035,7.969,-0.531,94.917,-1.343,0.112,0.112,-26.062,1.875,-28.125,1.414,-0.078,9.836,0.674,-0.054,-0.044,-0.735,1,-48.923,-9.176,0,27.675,2,41.519424,-86.239822,0,0.128,0.039012496,252.199997,11,47,6,16,12
275,20.221378,0,-0.031,-0.094,-0.047,7.972,-0.59,94.918,-1.79,0.112,-0.112,-26.938,4.125,-30.188,1.414,-0.109,9.852,0.674,-0.055,-0.043,-0.735,1,-48.923,-9.176,0,27.675,2,41.519424,-86.239822,0,0.103,0.031392868,252.199997,11,47,6,24,12
276,20.347378,0,0,-0.086,0.02,7.976,-0.573,94.939,0.783,0.224,-0.224,-29,0.125,-27.125,1.422,-0.109,9.867,0.674,-0.055,-0.043,-0.735,1,-53.132,-9.562,0,27.675,2,41.519424,-86.239822,0,0.226,0.068881439,252.199997,11,47,6,36,12
277,20.429379,0,-0.039,0.074,-0.086,7.999,-0.63,94.975,-0.112,0.224,-0.224,-26.938,-0.75,-26.688,1.422,-0.125,9.891,0.674,-0.055,-0.043,-0.736,1,-53.132,-9.562,0,27.675,2,41.519424,-86.239822,0,0.095,0.028954587,252.199997,11,47,6,44,12
278,20.476377,0,0.043,-0.133,0.297,7.998,-0.713,94.984,-1.231,0,-0.56,-27,2.438,-26.125,1.414,-0.141,9.883,0.674,-0.056,-0.043,-0.736,1,-48.923,-9.176,0,27.675,2,41.519424,-86.239822,0,0.083,0.025297165,252.199997,11,47,6,48,12
279,20.623379,0,0.082,0.105,0.195,8.022,-0.807,95.047,0,-0.224,-1.119,-28.875,2,-27.125,1.414,-0.156,9.898,0.673,-0.056,-0.042,-0.736,1,-45.767,-8.875,0,27.675,2,41.519424,-86.239822,0,0.084,0.025601951,252.199997,11,47,6,64,12
280,20.710379,0,-0.207,-0.117,-0.043,8.027,-0.802,95.052,1.007,-0.336,0,-26.562,2.5,-26.562,1.438,-0.109,9.93,0.673,-0.056,-0.042,-0.736,1,-48.923,-9.176,0,27.675,2,41.519424,-86.239822,0,0.132,0.040231637,252.199997,11,47,6,72,12
281,20.745378,0,0.082,0.09,-0.074,8.056,-0.68,95.001,-0.671,0.112,0.224,-26.625,0.062,-26.438,1.414,-0.102,9.914,0.674,-0.056,-0.043,-0.736,1,-45.767,-8.875,0,27.675,2,41.519424,-86.239822,0,0.062,0.018896678,252.199997,11,47,6,76,12
282,20.819378,0,0.16,-0.094,0.004,8.057,-0.71,94.999,-1.119,0.112,0,-27.938,1,-27.375,1.414,-0.109,9.914,0.674,-0.056,-0.043,-0.736,1,-45.767,-8.875,0,27.675,2,41.519424,-86.239822,0,0.12,0.036574215,252.199997,11,47,6,84,12
283,20.864378,0,-0.039,-0.062,0.051,8.074,-0.763,95.005,-0.224,0,-0.448,-27.812,3.938,-28.875,1.422,-0.133,9.906,0.674,-0.056,-0.043,-0.736,1,-45.767,-8.875,0,27.675,2,41.519424,-86.239822,0,0.091,0.027735447,252.199997,11,47,6,88,12
284,20.953379,0,-0.039,-0.027,0.09,8.074,-0.762,95.015,0.56,-0.224,0.224,-28.688,0.375,-26.812,1.422,-0.141,9.906,0.673,-0.056,-0.043,-0.736,1,-45.767,-8.875,0,27.675,2,41.519424,-86.239822,0,0.204,0.062176166,252.199997,11,47,6,96,12
285,21.076378,0,-0.086,0.105,-0.074,8.083,-0.724,94.988,0.448,0.224,0.112,-26.812,-1.125,-27.875,1.422,-0.117,9.914,0.674,-0.056,-0.043,-0.736,1,-45.767,-8.875,0,27.675,2,41.519424,-86.239822,0,0.108,0.032916794,252.300003,11,47,7,8,12
286,21.148378,0,0.129,-0.078,0.02,8.099,-0.747,95.001,0,0.112,-0.336,-28.312,1.125,-27.812,1.406,-0.125,9.898,0.674,-0.056,-0.043,-0.736,1,-45.767,-8.875,0,27.675,2,41.519424,-86.239822,0,0.066,0.020115818,252.300003,11,47,7,16,12
287,21.194378,0,0.098,0.098,-0.074,8.095,-0.772,95.004,-0.224,0.112,0.224,-28.875,2.812,-28.562,1.445,-0.141,9.914,0.674,-0.057,-0.043,-0.736,1,-48.923,-9.176,0,27.675,2,41.519424,-86.239822,0,0.095,0.028954587,252.300003,11,47,7,20,12
288,21.257378,0,-0.023,0.043,0.012,8.099,-0.768,94.985,0.56,0.112,0.224,-30.125,2.562,-28,1.445,-0.133,9.906,0.674,-0.057,-0.043,-0.736,1,-45.767,-8.875,0,27.675,2,41.519424,-86.239822,0,0.073,0.022249314,252.300003,11,47,7,28,12
289,21.348377,0,-0.023,0.043,0.012,8.103,-0.736,94.957,0.448,0.224,0.448,-29.438,0.75,-28.438,1.445,-0.117,9.914,0.674,-0.056,-0.043,-0.735,1,-48.923,-9.176,0,27.675,2,41.519424,-86.239822,0,0.076,0.02316367,252.300003,11,47,7,36,12
290,21.398357,0,-0.039,-0.148,-0.027,8.126,-0.816,94.922,-1.567,-0.112,0,-27.188,-0.938,-28.688,1.445,-0.117,9.914,0.674,-0.057,-0.043,-0.735,1,-45.767,-8.875,0,27.675,2,41.519424,-86.239822,0,0.159,0.048460835,252.300003,11,47,7,40,12
291,21.471378,0,-0.039,-0.219,-0.059,8.132,-0.86,94.928,-0.783,-0.336,0,-26.688,1.875,-29.688,1.422,-0.141,9.898,0.674,-0.057,-0.042,-0.735,1,-48.923,-9.176,0,27.675,2,41.519424,-86.239822,0,0.16,0.04876562,252.300003,11,47,7,48,12
292,21.547379,0,-0.047,-0.062,0.059,8.133,-0.87,94.933,1.679,0.112,-0.448,-27.438,3.875,-28.438,1.391,-0.172,9.898,0.674,-0.057,-0.042,-0.735,1,-45.767,-8.875,0,27.675,2,41.519424,-86.239822,0,0.228,0.069491009,252.300003,11,47,7,56,12
293,21.586378,0,0.137,0.289,-0.066,8.111,-0.693,94.99,1.79,0.112,-0.56,-29.125,1.125,-27.375,1.398,-0.148,9.906,0.674,-0.056,-0.043,-0.736,1,-42.611,-8.563,0,27.675,2,41.519424,-86.239822,0,0.201,0.06126181,252.300003,11,47,7,60,12
294,21.669378,0,0.246,0.234,0.012,8.105,-0.678,94.991,-0.112,0,0.336,-29,2.812,-26.875,1.414,-0.117,9.906,0.674,-0.056,-0.043,-0.736,1,-45.767,-8.875,0,27.675,2,41.519424,-86.239822,0,0.081,0.024687595,252.300003,11,47,7,68,12
295,21.704378,0,-0.094,-0.195,-0.027,8.115,-0.783,94.983,-1.679,-0.224,0,-29.125,1.25,-28.25,1.438,-0.125,9.906,0.674,-0.057,-0.043,-0.736,1,-45.767,-8.875,0,27.675,2,41.519424,-86.239822,0,0.111,0.033831149,252.300003,11,47,7,72,12
296,21.786379,0,-0.133,-0.141,-0.027,8.122,-0.837,94.985,-0.783,0.112,0.112,-27.312,-0.562,-27.5,1.438,-0.141,9.906,0.674,-0.057,-0.042,-0.736,1,-48.923,-9.176,0,27.675,2,41.519424,-86.239822,0,0.176,0.053642182,252.300003,11,47,7,80,12
297,21.867378,0,0.035,0.098,-0.066,8.135,-0.791,94.998,1.343,0,-0.224,-27.938,2.25,-29.312,1.438,-0.141,9.906,0.674,-0.057,-0.043,-0.736,1,-53.132,-9.562,0,27.675,2,41.519424,-86.239822,0,0.14,0.042669918,252.300003,11,47,7,88,12
298,21.914377,0,-0.047,-0.117,-0.027,8.137,-0.727,94.983,0.224,0,0.224,-30,2.625,-30.062,1.422,-0.141,9.906,0.674,-0.057,-0.043,-0.736,1,-48.923,-9.176,0,27.675,2,41.519424,-86.239822,0,0.172,0.052423042,252.300003,11,47,7,92,12
299,21.955378,0,-0.039,0.012,-0.027,8.133,-0.742,94.981,-0.671,0.112,0.112,-29.875,0.062,-26.25,1.422,-0.133,9.906,0.674,-0.057,-0.043,-0.736,1,-48.923,-9.176,0,27.675,2,41.519424,-86.239822,0,0.091,0.027735447,252.300003,11,47,7,96,12
300,22.028378,0,-0.008,0.059,0.012,8.135,-0.782,94.979,-0.783,-0.112,-0.112,-27.375,0.5,-28.562,1.422,-0.141,9.906,0.674,-0.057,-0.043,-0.736,1,-53.132,-9.562,0,27.675,2,41.519424,-86.239822,0,0.1,0.030478513,252.300003,11,47,8,4,12
301,22.074377,0,-0.039,-0.027,0.012,8.146,-0.821,94.986,0.336,0,-0.112,-27.688,2.688,-28.625,1.422,-0.148,9.906,0.674,-0.057,-0.043,-0.736,1,-48.923,-9.176,0,27.675,2,41.519424,-86.239822,0,0.14,0.042669918,252.300003,11,47,8,8,12
302,22.148378,0,0.035,-0.035,0.012,8.15,-0.786,94.988,1.119,0,0.112,-28,1.562,-27.125,1.422,-0.133,9.906,0.674,-0.057,-0.043,-0.736,1,-45.767,-8.875,0,27.675,2,41.519424,-86.239822,0,0.13,0.039622066,252.300003,11,47,8,16,12
303,22.228378,0,0.008,0.004,0.02,8.142,-0.721,94.993,0.448,0.224,0.112,-27.938,-2.125,-26.688,1.414,-0.125,9.898,0.674,-0.057,-0.043,-0.736,1,-45.767,-8.875,0,27.675,2,41.519424,-86.239822,0,0.125,0.038098141,252.300003,11,47,8,24,12
304,22.307379,0,-0.039,0.004,-0.02,8.138,-0.737,94.982,-1.343,0,-0.112,-29.188,0.938,-26.438,1.422,-0.133,9.906,0.674,-0.057,-0.043,-0.736,1,-48.923,-9.176,0,27.675,2,41.519424,-86.239822,0,0.056,0.017067967,252.399994,11,47,8,32,12
305,22.343378,0,0.008,-0.035,0.012,8.151,-0.806,94.987,0.112,0,-0.112,-26.812,1.812,-27.625,1.422,-0.133,9.898,0.674,-0.057,-0.043,-0.736,1,-53.132,-9.562,0,27.675,2,41.519424,-86.239822,0,0.118,0.035964645,252.300003,11,47,8,36,12
306,22.429379,0,0.035,0.004,0.012,8.155,-0.791,94.988,0.895,0,0,-28.75,1,-26.938,1.414,-0.125,9.906,0.674,-0.057,-0.043,-0.736,1,-56.288,-9.842,0,27.675,2,41.519424,-86.239822,0,0.287,0.087473331,252.399994,11,47,8,44,12
307,22.474379,0,-0.039,-0.004,-0.066,8.148,-0.737,94.982,0.224,0.224,0.224,-29.25,1.75,-27.438,1.43,-0.125,9.906,0.674,-0.057,-0.043,-0.736,1,-48.923,-9.176,0,27.675,2,41.519424,-86.239822,0,0.089,0.027125876,252.300003,11,47,8,48,12
308,22.547379,0,-0.039,-0.004,-0.027,8.142,-0.722,94.978,-0.56,0.224,0,-27.5,0.938,-27.375,1.422,-0.125,9.906,0.674,-0.057,-0.043,-0.736,1,-53.132,-9.562,0,27.675,2,41.519424,-86.239822,0,0.167,0.050899116,252.399994,11,47,8,56,12
309,22.627378,0,-0.039,-0.004,0.012,8.148,-0.737,94.982,-0.56,-0.224,-0.112,-29.5,4.438,-28.875,1.422,-0.133,9.898,0.674,-0.057,-0.043,-0.736,1,-48.923,-9.176,0,27.675,2,41.519424,-86.239822,0,0.03,0.009143554,252.399994,11,47,8,64,12
310,22.67338,0,0.074,-0.07,0.012,8.159,-0.766,94.99,0.224,0.112,0.112,-28.125,2.938,-28.25,1.422,-0.125,9.906,0.674,-0.057,-0.043,-0.736,1,-53.132,-9.562,0,27.675,2,41.519424,-86.239822,0,0.106,0.032307223,252.399994,11,47,8,68,12
311,22.737377,0,0.074,-0.035,-0.027,8.152,-0.732,94.982,0.56,0.112,0.224,-26.625,1,-28.312,1.422,-0.133,9.906,0.674,-0.057,-0.043,-0.736,1,-53.132,-9.562,0,27.675,2,41.519424,-86.239822,0,0.034,0.010362694,252.399994,11,47,8,76,12
312,22.827377,0,0.074,0.043,-0.027,8.147,-0.718,94.973,-0.112,0.112,0.112,-28.125,2.875,-27.75,1.43,-0.133,9.906,0.674,-0.057,-0.043,-0.736,1,-48.923,-9.176,0,27.675,2,41.519424,-86.239822,0,0.041,0.01249619,252.399994,11,47,8,84,12
313,22.863379,0,-0.031,0.035,-0.066,8.153,-0.742,94.981,-0.224,0.112,0.224,-28.438,-1.375,-27.25,1.422,-0.133,9.906,0.674,-0.057,-0.043,-0.736,1,-48.923,-9.176,0,27.675,2,41.519424,-86.239822,0,0.032,0.009753124,252.399994,11,47,8,88,12
314,22.947378,0,0.035,-0.004,0.012,8.153,-0.742,94.981,-0.224,0,-0.112,-28.625,3.25,-27.875,1.414,-0.125,9.906,0.674,-0.057,-0.043,-0.736,1,-48.923,-9.176,0,27.675,2,41.519424,-86.239822,0,0.056,0.017067967,252.399994,11,47,8,96,12
315,22.982378,0,0.035,-0.035,-0.027,8.158,-0.756,94.99,-0.671,0.112,0,-27.188,2.062,-28.5,1.422,-0.133,9.906,0.674,-0.057,-0.043,-0.736,1,-48.923,-9.176,0,27.675,2,41.519424,-86.239822,0,0.14,0.042669918,252.399994,11,47,9,0,12
316,23.022379,0,-0.008,-0.035,-0.027,8.16,-0.785,94.988,0,0.112,0.112,-28.562,0.312,-28.438,1.43,-0.133,9.906,0.674,-0.057,-0.043,-0.736,1,-45.767,-8.875,0,27.675,2,41.519424,-86.239822,0,0.245,0.074672356,252.399994,11,47,9,4,12
317,23.072378,0,0,-0.027,0.012,8.159,-0.766,94.99,0.895,0,-0.112,-27.312,-0.25,-27.562,1.422,-0.141,9.906,0.674,-0.057,-0.043,-0.736,1,-45.767,-8.875,0,27.675,2,41.519424,-86.239822,0,0.069,0.021030174,252.399994,11,47,9,8,12
318,23.145378,0,-0.039,0.004,-0.066,8.152,-0.731,94.992,1.119,0.224,0.112,-28.375,2.188,-28.438,1.422,-0.133,9.906,0.674,-0.057,-0.043,-0.736,1,-45.767,-8.875,0,27.675,2,41.519424,-86.239822,0,0.111,0.033831149,252.399994,11,47,9,16,12
319,23.183378,0,0.043,-0.004,0.051,8.151,-0.691,94.995,-0.224,0.112,-0.112,-28.812,1.25,-26.625,1.414,-0.125,9.906,0.674,-0.056,-0.044,-0.736,1,-48.923,-9.176,0,27.675,2,41.519424,-86.239822,0,0.213,0.064919232,252.399994,11,47,9,20,12
320,23.267378,0,0,-0.004,-0.027,8.147,-0.716,94.993,-1.007,0,0.224,-26.625,0.562,-27.375,1.422,-0.133,9.906,0.674,-0.057,-0.043,-0.736,1,-48.923,-9.176,0,27.675,2,41.519424,-86.239822,0,0.03,0.009143554,252.399994,11,47,9,28,12
321,23.303377,0,-0.039,0.012,0.012,8.149,-0.776,94.989,-0.448,0,-0.112,-27.688,-0.562,-27.5,1.422,-0.141,9.906,0.674,-0.057,-0.043,-0.736,1,-48.923,-9.176,0,27.675,2,41.519424,-86.239822,0,0.073,0.022249314,252.399994,11,47,9,32,12
322,23.387379,0,-0.039,0.012,-0.027,8.149,-0.776,94.989,0.224,0.112,0.112,-27.438,3.875,-28.438,1.422,-0.141,9.906,0.674,-0.057,-0.043,-0.736,1,-48.923,-9.176,0,27.675,2,41.519424,-86.239822,0,0.103,0.031392868,252.399994,11,47,9,40,12
323,23.433378,0,0,0.004,-0.027,8.154,-0.771,94.989,0.112,0,0.112,-27.25,2.062,-27.25,1.422,-0.133,9.906,0.674,-0.057,-0.043,-0.736,1,-45.767,-8.875,0,27.675,2,41.519424,-86.239822,0,0.032,0.009753124,252.399994,11,47,9,44,12
324,23.541378,0,0,-0.035,-0.027,8.159,-0.775,94.999,-0.336,-0.112,-0.224,-27.875,1.062,-27.812,1.422,-0.133,9.906,0.674,-0.057,-0.043,-0.736,1,-48.923,-9.176,0,27.675,2,41.519424,-86.239822,0,0.078,0.02377324,252.399994,11,47,9,56,12
325,23.628378,0,0,0.004,0.012,8.16,-0.795,94.997,0.224,-0.112,0.112,-26.438,2.375,-27.75,1.422,-0.133,9.906,0.674,-0.057,-0.043,-0.736,1,-48.923,-9.176,0,27.675,2,41.519424,-86.239822,0,0.047,0.014324901,252.399994,11,47,9,64,12
326,23.705378,0,0,-0.012,0.012,8.154,-0.77,94.999,0.56,0.112,-0.112,-30,-1.25,-27.188,1.422,-0.125,9.906,0.674,-0.057,-0.043,-0.736,1,-45.767,-8.875,0,27.675,2,41.519424,-86.239822,0,0.081,0.024687595,252.399994,11,47,9,72,12
327,23.742378,0,0,-0.012,0.012,8.161,-0.701,94.994,0,0.112,-0.112,-27.5,1.125,-28.25,1.422,-0.117,9.906,0.674,-0.057,-0.044,-0.736,1,-42.611,-8.563,0,27.675,2,41.519424,-86.239822,0,0.081,0.024687595,252.399994,11,47,9,76,12
328,23.827377,0,0.035,-0.004,0.012,8.161,-0.711,94.993,-0.671,0,-0.112,-28.375,1.188,-26.562,1.422,-0.117,9.906,0.674,-0.057,-0.044,-0.736,1,-48.923,-9.176,0,27.675,2,41.519424,-86.239822,0,0.051,0.015544041,252.399994,11,47,9,84,12
329,23.862377,0,-0.047,0.004,0.02,8.163,-0.75,95.001,-0.448,0,-0.112,-29.688,2.438,-27.562,1.43,-0.133,9.898,0.674,-0.057,-0.043,-0.736,1,-45.767,-8.875,0,27.675,2,41.519424,-86.239822,0,0.127,0.038707711,252.399994,11,47,9,88,12
330,23.956379,0,0,-0.043,-0.027,8.173,-0.749,95.01,0.448,0,-0.112,-29.062,0.438,-27.188,1.43,-0.125,9.906,0.673,-0.057,-0.043,-0.736,1,-48.923,-9.176,0,27.675,2,41.519424,-86.239822,0,0.165,0.050289546,252.399994,11,47,9,96,12
331,23.991379,0,0.074,-0.004,-0.027,8.167,-0.714,95.013,0.895,0,0.112,-28.25,0.375,-27.188,1.422,-0.125,9.906,0.673,-0.057,-0.044,-0.736,1,-48.923,-9.176,0,27.675,2,41.519424,-86.239822,0,0.064,0.019506248,252.399994,11,47,10,0,12
332,24.067377,0,0,-0.004,-0.027,8.165,-0.664,95.012,0.671,0,0.112,-29.562,1.688,-28.688,1.422,-0.117,9.906,0.673,-0.056,-0.044,-0.736,1,-48.923,-9.176,0,27.675,2,41.519424,-86.239822,0,0.142,0.043279488,252.399994,11,47,10,8,12
333,24.145378,0,-0.008,0.027,-0.035,8.159,-0.65,95.008,0.224,-0.112,0,-28,4.812,-28.25,1.43,-0.117,9.914,0.674,-0.056,-0.044,-0.736,1,-38.402,-8.129,0,27.675,2,41.519424,-86.239822,0,0.1,0.030478513,252.399994,11,47,10,16,12
334,24.181377,0,-0.047,0.035,0.004,8.165,-0.675,95.001,-0.336,-0.112,-0.112,-27.125,1.812,-28.812,1.43,-0.125,9.914,0.674,-0.056,-0.044,-0.736,1,-42.611,-8.563,0,27.675,2,41.519424,-86.239822,0,0.159,0.048460835,252.399994,11,47,10,20,12
335,24.264378,0,-0.039,-0.004,0.012,8.171,-0.699,95.004,-0.224,-0.112,-0.224,-29.562,1.125,-27.312,1.422,-0.125,9.914,0.674,-0.057,-0.044,-0.736,1,-42.611,-8.563,0,27.675,2,41.519424,-86.239822,0,0.116,0.035355075,252.399994,11,47,10,28,12
336,24.382378,0,0.035,0.012,-0.027,8.172,-0.719,95.013,-1.343,-0.112,-0.112,-29.562,4.312,-27.938,1.422,-0.141,9.906,0.673,-0.057,-0.044,-0.736,1,-38.402,-8.129,0,27.675,2,41.519424,-86.239822,0,0.03,0.009143554,252.5,11,47,10,40,12
337,24.463379,0,-0.047,-0.004,-0.027,8.167,-0.828,95.015,-0.448,-0.112,-0.112,-29.562,1.25,-27.75,1.43,-0.164,9.906,0.673,-0.057,-0.043,-0.736,1,-38.402,-8.129,0,27.675,2,41.519424,-86.239822,0,0.154,0.046936909,252.5,11,47,10,48,12
338,24.514359,0,0.027,0.027,0.012,8.185,-0.911,95.024,0.336,0.112,0,-29.938,0.75,-26.438,1.422,-0.156,9.906,0.673,-0.058,-0.042,-0.736,1,-35.246,-7.788,0,27.675,2,41.519424,-86.239822,0,0.098,0.029868942,252.5,11,47,10,52,12
339,24.621378,0,0,0.027,0.012,8.189,-0.876,95.016,0.56,0,0.224,-27.688,0.438,-29.75,1.422,-0.156,9.906,0.673,-0.058,-0.043,-0.736,1,-38.402,-8.129,0,27.675,2,41.519428,-86.239822,0,0.068,0.020725389,252.5,11,47,10,64,12
340,24.659378,0,0.035,-0.051,0.012,8.187,-0.827,95.02,1.79,0.224,0.112,-26.5,2.812,-28.25,1.43,-0.125,9.906,0.673,-0.057,-0.043,-0.736,1,-38.402,-8.129,0,27.675,2,41.519428,-86.239822,0,0.073,0.022249314,252.5,11,47,10,68,12
341,24.743378,0,0.027,0.035,-0.027,8.174,-0.655,94.997,0.336,0.112,0.112,-27.5,1,-27.812,1.43,-0.125,9.906,0.674,-0.056,-0.044,-0.736,1,-38.402,-8.129,0,27.675,2,41.519428,-86.239822,0,0.165,0.050289546,252.5,11,47,10,76,12
342,24.780378,0,0.027,0.035,-0.027,8.176,-0.715,94.993,-0.895,0,0,-29.125,1.688,-28.688,1.43,-0.125,9.898,0.674,-0.057,-0.044,-0.736,1,-38.402,-8.129,0,27.675,2,41.519428,-86.239822,0,0.025,0.007619628,252.5,11,47,10,80,12
343,24.864378,0,-0.039,0.004,-0.02,8.178,-0.754,95,-1.007,-0.112,-0.112,-30.062,2.25,-28,1.422,-0.125,9.898,0.674,-0.057,-0.043,-0.736,1,-38.402,-8.129,0,27.675,2,41.519428,-86.239822,0,0.116,0.035355075,252.5,11,47,10,88,12
344,24.900377,0,0.074,-0.027,0.02,8.19,-0.782,95.013,0,-0.112,-0.336,-28.812,2.188,-28.438,1.422,-0.141,9.898,0.673,-0.057,-0.043,-0.736,1,-35.246,-7.788,0,27.675,2,41.519428,-86.239822,0,0.095,0.028954587,252.5,11,47,10,92,12
345,24.949377,0,0.066,0.051,-0.027,8.185,-0.788,95.013,-0.336,-0.112,-0.224,-26.5,2.625,-27.438,1.43,-0.141,9.906,0.673,-0.057,-0.043,-0.736,1,-35.246,-7.788,0,27.675,2,41.519428,-86.239822,0,0.066,0.020115818,252.5,11,47,10,96,12
346,25.025377,0,-0.008,0.012,0.012,8.191,-0.812,95.011,-0.895,-0.112,0.112,-28.688,3.438,-27,1.438,-0.141,9.906,0.673,-0.057,-0.043,-0.736,1,-38.402,-8.129,0,27.675,2,41.519428,-86.239822,0,0.152,0.046327339,252.5,11,47,11,4,12
347,25.147379,0,-0.047,0.027,0.012,8.189,-0.877,95.006,-0.671,0,0.112,-27,-0.062,-27.25,1.43,-0.156,9.906,0.673,-0.058,-0.043,-0.736,1,-38.402,-8.129,0,27.675,2,41.519428,-86.239822,0,0.071,0.021639744,252.5,11,47,11,16,12
348,25.219378,0,0,-0.07,-0.027,8.188,-0.857,95.018,-0.112,0,0,-28.188,2.75,-26.938,1.422,-0.133,9.906,0.673,-0.058,-0.043,-0.736,1,-35.246,-7.788,0,27.675,2,41.519428,-86.239822,0,0.1,0.030478513,252.5,11,47,11,24,12
349,25.269379,0,0,-0.062,0.012,8.181,-0.822,95.015,-0.783,0.112,-0.224,-26.562,3.062,-27.938,1.422,-0.133,9.906,0.673,-0.057,-0.043,-0.736,1,-32.09,-7.431,0,27.675,2,41.519428,-86.239822,0,0.157,0.047851265,252.5,11,47,11,28,12
350,25.344378,0,-0.039,0.02,-0.066,8.182,-0.843,95.009,-0.112,0,0.112,-27.938,1.5,-28.312,1.422,-0.141,9.906,0.673,-0.058,-0.043,-0.736,1,-35.246,-7.788,0,27.675,2,41.519428,-86.239822,0,0.113,0.034440719,252.5,11,47,11,36,12
351,25.389378,0,0,-0.004,-0.027,8.176,-0.808,95.016,1.119,0.112,0.112,-27.375,0.438,-28.188,1.422,-0.133,9.906,0.673,-0.057,-0.043,-0.736,1,-24.725,-6.523,0,27.675,2,41.519428,-86.239822,0,0.138,0.042060347,252.5,11,47,11,40,12
352,25.462378,0,0,-0.004,0.012,8.168,-0.744,95.011,0.783,0.112,0.112,-28.125,3.375,-28.75,1.422,-0.125,9.906,0.673,-0.057,-0.043,-0.736,1,-32.09,-7.431,0,27.675,2,41.519428,-86.239822,0,0.224,0.068271868,252.5,11,47,11,48,12
353,25.509378,0,-0.039,-0.004,-0.027,8.169,-0.764,95.009,-0.56,-0.112,0,-30,2,-28.312,1.422,-0.125,9.906,0.673,-0.057,-0.043,-0.736,1,-27.881,-6.927,0,27.675,2,41.519428,-86.239822,0,0.177,0.053946967,252.5,11,47,11,52,12
354,25.620378,0,0,0.004,-0.027,8.171,-0.803,95.012,-0.783,-0.224,-0.336,-26.438,2.562,-28.688,1.422,-0.133,9.906,0.673,-0.057,-0.043,-0.736,1,-27.881,-6.927,0,27.675,2,41.519428,-86.239822,0,0.197,0.06004267,252.5,11,47,11,64,12
355,25.659376,0,0.035,-0.035,-0.066,8.176,-0.817,95.021,0.895,0.224,0.224,-27.562,1.312,-27.5,1.422,-0.133,9.906,0.673,-0.057,-0.043,-0.736,1,-27.881,-6.927,0,27.675,2,41.519428,-86.239822,0,0.116,0.035355075,252.5,11,47,11,68,12
356,25.742378,0,-0.008,-0.043,0.051,8.164,-0.759,95.01,0.671,0.112,0.112,-27.688,2.062,-26.875,1.43,-0.125,9.906,0.673,-0.057,-0.043,-0.736,1,-27.881,-6.927,0,27.675,2,41.519428,-86.239822,0,0.358,0.109113075,252.5,11,47,11,76,12
357,25.789377,0,-0.047,0.043,-0.027,8.163,-0.739,95.011,-0.224,0,0,-27.812,0.438,-27.75,1.43,-0.133,9.906,0.673,-0.057,-0.043,-0.736,1,-32.09,-7.431,0,27.675,2,41.519428,-86.239822,0,0.165,0.050289546,252.5,11,47,11,80,12
358,25.863379,0,0,0.004,-0.027,8.169,-0.764,95.005,-0.336,-0.112,0.112,-27,2.938,-27.062,1.422,-0.125,9.906,0.673,-0.057,-0.043,-0.736,1,-27.881,-6.927,0,27.675,2,41.519428,-86.239822,0,0.208,0.063395306,252.5,11,47,11,88,12
359,25.909378,0,0,-0.004,0.02,8.169,-0.764,94.999,0.448,-0.112,-0.224,-27.188,2.375,-29,1.422,-0.125,9.898,0.674,-0.057,-0.043,-0.736,1,-27.881,-6.927,0,27.675,2,41.519428,-86.239822,0,0.159,0.048460835,252.5,11,47,11,92,12
360,25.949377,0,0.035,-0.004,0.098,8.172,-0.729,95.002,0.448,0,-0.112,-26.812,2.688,-29.125,1.422,-0.125,9.898,0.674,-0.057,-0.043,-0.736,1,-27.881,-6.927,0,27.675,2,41.519428,-86.239822,0,0.118,0.035964645,252.5,11,47,11,96,12
361,26.067377,0,0.035,-0.004,-0.027,8.167,-0.725,95.002,0.112,0.224,0.224,-30.375,1.875,-27.438,1.422,-0.125,9.906,0.674,-0.057,-0.043,-0.736,1,-27.881,-6.927,0,27.675,2,41.519428,-86.239822,0,0.071,0.021639744,252.5,11,47,12,8,12
362,26.108377,0,-0.086,-0.035,0.02,8.167,-0.735,94.992,-0.448,0,-0.112,-29.688,1.688,-26.625,1.43,-0.133,9.898,0.674,-0.057,-0.043,-0.736,1,-32.09,-7.431,0,27.675,2,41.519428,-86.239822,0,0.03,0.009143554,252.5,11,47,12,12,12
363,26.301378,0,-0.039,-0.035,0.02,8.175,-0.799,95.002,-0.336,0,0.112,-29.312,2.75,-28.125,1.422,-0.133,9.898,0.673,-0.057,-0.043,-0.736,1,-27.881,-6.927,0,27.675,2,41.519428,-86.239822,0,0.032,0.009753124,252.5,11,47,12,32,12
364,26.341377,0,-0.039,0.012,-0.027,8.175,-0.798,95.007,0.224,-0.112,-0.112,-29.875,4,-27.938,1.422,-0.141,9.906,0.673,-0.057,-0.043,-0.736,1,-35.246,-7.788,0,27.675,2,41.519428,-86.239822,0,0.108,0.032916794,252.5,11,47,12,36,12
365,26.421377,0,0,0.004,-0.027,8.17,-0.804,95.007,0,0,0,-29.625,3.188,-30.312,1.422,-0.141,9.906,0.673,-0.057,-0.043,-0.736,1,-35.246,-7.788,0,27.675,2,41.519428,-86.239822,0,0.132,0.040231637,252.5,11,47,12,44,12
366,26.468378,0,0,-0.035,0.012,8.175,-0.798,95.007,0,0,0,-30.062,1.875,-27.5,1.422,-0.133,9.906,0.673,-0.057,-0.043,-0.736,1,-27.881,-6.927,0,27.675,2,41.519428,-86.239822,0,0.076,0.02316367,252.5,11,47,12,48,12
367,26.587378,0,0.035,-0.035,0.004,8.17,-0.794,95.007,0,0,0,-27.75,3.188,-27.875,1.422,-0.141,9.914,0.673,-0.057,-0.043,-0.736,1,-32.09,-7.431,0,27.675,2,41.519428,-86.239822,0,0.118,0.035964645,252.5,11,47,12,60,12
368,26.627378,0,-0.078,0.043,-0.027,8.175,-0.798,95.007,0,0,0,-28.812,-1.812,-26.312,1.43,-0.133,9.906,0.673,-0.057,-0.043,-0.736,1,-32.09,-7.431,0,27.675,2,41.519428,-86.239822,0,0.049,0.014934471,252.5,11,47,12,64,12
369,26.701378,0,0.008,-0.004,-0.027,8.175,-0.798,95.007,0,0,0,-26.75,2.375,-29.062,1.422,-0.133,9.906,0.673,-0.057,-0.043,-0.736,1,-35.246,-7.788,0,27.675,2,41.519428,-86.239822,0,0.235,0.071624505,252.5,11,47,12,72,12
370,26.747377,0,0.043,-0.043,0.02,8.17,-0.794,95.007,0,0,0,-27.75,2.875,-27.812,1.414,-0.125,9.898,0.673,-0.057,-0.043,-0.736,1,-32.09,-7.431,0,27.675,2,41.519428,-86.239822,0,0.101,0.030783298,252.5,11,47,12,76,12
371,26.822378,0,0.035,-0.043,0.051,8.17,-0.784,95.008,0,0,0,-28,2.438,-29,1.414,-0.125,9.906,0.673,-0.057,-0.043,-0.736,1,-35.246,-7.788,0,27.675,2,41.519428,-86.239822,0,0.034,0.010362694,252.5,11,47,12,84,12
372,26.902378,0,-0.086,0.082,-0.066,8.17,-0.784,95.008,0,0,0,-27.938,1.5,-28.312,1.43,-0.133,9.906,0.673,-0.057,-0.043,-0.736,1,-27.881,-6.927,0,27.675,2,41.519428,-86.239822,0,0.174,0.053032612,252.600006,11,47,12,92,12
373,26.948378,0,0.008,-0.004,-0.027,8.17,-0.784,95.008,0,0,0,-27.25,2.25,-28.188,1.422,-0.125,9.906,0.673,-0.057,-0.043,-0.736,1,-27.881,-6.927,0,27.675,2,41.519428,-86.239822,0,0.106,0.032307223,252.600006,11,47,12,96,12
374,27.021378,0,0.082,-0.043,-0.027,8.169,-0.774,95.009,0,0,0,-27.688,3.438,-29.625,1.414,-0.125,9.906,0.673,-0.057,-0.043,-0.736,1,-27.881,-6.927,0,27.675,2,41.519428,-86.239822,0,0.164,0.049984761,252.5,11,47,13,4,12
375,27.071379,0,0.035,-0.035,0.012,8.169,-0.774,95.009,0,0,0,-30.875,2.375,-26.688,1.422,-0.125,9.906,0.673,-0.057,-0.043,-0.736,1,-32.09,-7.431,0,27.675,2,41.519428,-86.239822,0,0.145,0.044193843,252.5,11,47,13,8,12
376,27.151379,0,-0.055,0.043,0.012,8.169,-0.774,95.009,0,0,0,-29.875,0,-25.875,1.43,-0.133,9.906,0.673,-0.057,-0.043,-0.736,1,-32.09,-7.431,0,27.675,2,41.519428,-86.239822,0,0.101,0.030783298,252.5,11,47,13,16,12
377,27.264378,0,-0.047,0.004,-0.027,8.174,-0.768,95.009,0,0,0,-27.062,0.125,-26.5,1.43,-0.133,9.906,0.673,-0.057,-0.043,-0.736,1,-32.09,-7.431,0,27.675,2,41.519428,-86.239822,0,0.035,0.010667479,252.600006,11,47,13,28,12
378,27.341377,0,0,-0.043,0.02,8.174,-0.768,95.009,0,0,0,-27.062,1,-27.938,1.422,-0.125,9.898,0.673,-0.057,-0.043,-0.736,1,-35.246,-7.788,0,27.675,2,41.519428,-86.239822,0,0.1,0.030478513,252.600006,11,47,13,36,12
379,27.386377,0,0.066,0.004,-0.027,8.174,-0.768,95.009,0,0,0,-28.75,1.5,-27.938,1.43,-0.133,9.906,0.673,-0.057,-0.043,-0.736,1,-27.881,-6.927,0,27.675,2,41.519428,-86.239822,0,0.083,0.025297165,252.600006,11,47,13,40,12
380,27.461378,0,-0.016,0.004,-0.027,8.179,-0.763,95.009,0,0,0,-26.188,4.062,-30.25,1.43,-0.133,9.906,0.673,-0.057,-0.043,-0.736,1,-32.09,-7.431,0,27.675,2,41.519428,-86.239822,0,0.15,0.045717769,252.600006,11,47,13,48,12
381,27.541378,0,-0.047,0.043,-0.02,8.184,-0.768,95.014,0,0,0,-29.188,2,-28.812,1.43,-0.133,9.898,0.673,-0.057,-0.043,-0.736,1,-32.09,-7.431,0,27.675,2,41.519428,-86.239822,0,0.084,0.025601951,252.600006,11,47,13,56,12
382,27.658379,0,0.035,0.004,0.02,8.189,-0.762,95.015,0,0,0,-27.438,3.812,-28.125,1.422,-0.125,9.898,0.673,-0.057,-0.043,-0.736,1,-32.09,-7.431,0,27.675,2,41.519428,-86.239822,0,0.061,0.018591893,252.600006,11,47,13,68,12
383,27.750378,0,0.035,-0.004,0.02,8.189,-0.762,95.015,0,0,0,-27,3.812,-28.5,1.43,-0.133,9.906,0.673,-0.057,-0.043,-0.736,1,-32.09,-7.431,0,27.675,2,41.519428,-86.239822,0,0.01,0.003047851,252.600006,11,47,13,76,12
384,27.787378,0,-0.008,0.004,0.012,8.189,-0.762,95.015,0,0,0,-29,1.125,-29.062,1.43,-0.133,9.906,0.673,-0.057,-0.043,-0.736,1,-32.09,-7.431,0,27.675,2,41.519428,-86.239822,0,0.025,0.007619628,252.600006,11,47,13,80,12
385,27.869377,0,-0.008,0.043,0.051,8.194,-0.767,95.014,0,0,0,-28.188,1.562,-30.438,1.43,-0.133,9.906,0.673,-0.057,-0.043,-0.736,1,-27.881,-6.927,0,27.675,2,41.519428,-86.239822,0,0.064,0.019506248,252.600006,11,47,13,88,12
386,27.952377,0,-0.008,0.004,0.012,8.189,-0.762,95.015,0,0,0,-26.75,2.438,-29.5,1.422,-0.125,9.906,0.673,-0.057,-0.043,-0.736,1,-32.09,-7.431,0,27.675,2,41.519428,-86.239822,0,0.081,0.024687595,252.5,11,47,13,96,12
387,27.998358,0,-0.008,0.004,-0.027,8.189,-0.762,95.015,0,0,0,-27.312,0.688,-29.438,1.43,-0.133,9.906,0.673,-0.057,-0.043,-0.736,1,-32.09,-7.431,0,27.675,2,41.519428,-86.239822,0,0.101,0.030783298,252.5,11,47,14,0,12
388,28.070377,0,-0.008,0.004,0.051,8.189,-0.762,95.015,0,0,0,-26.938,3.625,-29.312,1.43,-0.133,9.906,0.673,-0.057,-0.043,-0.736,1,-32.09,-7.431,0,27.675,2,41.519428,-86.239822,0,0.089,0.027125876,252.600006,11,47,14,8,12
389,28.149357,0,-0.008,-0.035,0.012,8.199,-0.762,95.015,0,0,0,-30.438,2.25,-28,1.43,-0.133,9.906,0.673,-0.057,-0.043,-0.736,1,-32.09,-7.431,0,27.675,2,41.519428,-86.239822,0,0.101,0.030783298,252.600006,11,47,14,12,12
390,28.186378,0,0.027,0.004,0.012,8.199,-0.762,95.015,0,0,0,-27.125,1.812,-28.875,1.43,-0.133,9.906,0.673,-0.057,-0.043,-0.736,1,-32.09,-7.431,0,27.675,2,41.519428,-86.239822,0,0.084,0.025601951,252.600006,11,47,14,20,12
391,28.225378,0,-0.008,0.004,0.012,8.199,-0.762,95.015,0,0,0,-29.125,1.25,-28.312,1.43,-0.133,9.906,0.673,-0.057,-0.043,-0.736,1,-27.881,-6.927,0,27.675,2,41.519428,-86.239822,0,0.078,0.02377324,252.600006,11,47,14,24,12
392,28.349379,0,-0.008,0.043,0.012,8.199,-0.762,95.015,0,0,0,-25.875,1.062,-28.812,1.43,-0.133,9.906,0.673,-0.057,-0.043,-0.736,1,-27.881,-6.927,0,27.675,2,41.519428,-86.239822,0,0.091,0.027735447,252.600006,11,47,14,36,12
393,28.430378,0,0.027,0.004,0.012,8.199,-0.762,95.015,0,0,0,-27.75,3.625,-28.875,1.43,-0.133,9.906,0.673,-0.057,-0.043,-0.736,1,-32.09,-7.431,0,27.675,2,41.519428,-86.239822,0,0.046,0.014020116,252.600006,11,47,14,44,12
394,28.464378,0,-0.008,0.004,0.012,8.199,-0.762,95.015,0,0,0,-27.625,1.938,-28.062,1.43,-0.133,9.906,0.673,-0.057,-0.043,-0.736,1,-27.881,-6.927,0,27.675,2,41.519428,-86.239822,0,0.068,0.020725389,252.600006,11,47,14,48,12
395,28.583378,0,-0.008,0.004,0.012,8.204,-0.767,95.014,0,0,0,-26.625,1.062,-28.375,1.43,-0.133,9.906,0.673,-0.057,-0.043,-0.736,1,-27.881,-6.927,0,27.675,2,41.519428,-86.239822,0,0.138,0.042060347,252.600006,11,47,14,60,12
396,28.624378,0,0.035,-0.035,0.012,8.199,-0.762,95.015,0,0,0,-30.938,3.25,-28.188,1.422,-0.133,9.906,0.673,-0.057,-0.043,-0.736,1,-27.881,-6.927,0,27.675,2,41.519428,-86.239822,0,0.068,0.020725389,252.600006,11,47,14,64,12
397,28.699377,0,0.035,0.004,0.051,8.194,-0.767,95.014,0,0,0,-27.125,1.688,-28.5,1.43,-0.133,9.906,0.673,-0.057,-0.043,-0.736,1,-27.881,-6.927,0,27.675,2,41.519428,-86.239822,0,0.137,0.041755562,252.600006,11,47,14,72,12
398,28.744377,0,0,0.004,0.051,8.199,-0.762,95.015,0,0,0,-26.5,2.188,-28.188,1.43,-0.133,9.906,0.673,-0.057,-0.043,-0.736,1,-32.09,-7.431,0,27.675,2,41.519428,-86.239822,0,0.13,0.039622066,252.600006,11,47,14,76,12
399,28.828379,0,-0.039,0.004,-0.066,8.194,-0.767,95.014,0,0,0,-28.25,0.438,-27.312,1.422,-0.133,9.906,0.673,-0.057,-0.043,-0.736,1,-27.881,-6.927,0,27.675,2,41.519432,-86.239822,0,0.231,0.070405364,252.600006,11,47,14,84,12
400,28.899378,0,0,-0.035,0.051,8.194,-0.767,95.014,0,0,0,-28.375,1.75,-28,1.422,-0.133,9.906,0.673,-0.057,-0.043,-0.736,1,-35.246,-7.788,0,27.675,2,41.519432,-86.239822,0,0.069,0.021030174,252.600006,11,47,14,92,12
401,28.957378,0,-0.008,0.051,0.012,8.194,-0.767,95.014,0,0,0,-28.5,3.062,-28.688,1.43,-0.141,9.906,0.673,-0.057,-0.043,-0.736,1,-24.725,-6.523,0,27.675,2,41.519432,-86.239822,0,0.127,0.038707711,252.600006,11,47,14,96,12
402,29.018377,0,-0.086,0.012,-0.027,8.194,-0.767,95.014,0,0,0,-26,1.125,-27.625,1.43,-0.141,9.906,0.673,-0.057,-0.043,-0.736,1,-32.09,-7.431,0,27.675,2,41.519432,-86.239822,0,0.143,0.043584273,252.600006,11,47,15,4,12
403,29.097378,0,0,0.012,-0.066,8.189,-0.772,95.014,0,0,0,-27,0.375,-27.875,1.422,-0.133,9.906,0.673,-0.057,-0.043,-0.736,1,-35.246,-7.788,0,27.675,2,41.519432,-86.239822,0,0.035,0.010667479,252.600006,11,47,15,12,12
404,29.144379,0,0,0.004,0.02,8.189,-0.772,95.014,0,0,0,-28.375,1.625,-27.625,1.422,-0.133,9.898,0.673,-0.057,-0.043,-0.736,1,-27.881,-6.927,0,27.675,2,41.519432,-86.239822,0,0.103,0.031392868,252.600006,11,47,15,16,12
405,29.218378,0,-0.039,0.004,0.059,8.189,-0.772,95.014,0,0,0,-26.75,3.5,-26.812,1.422,-0.133,9.898,0.673,-0.057,-0.043,-0.736,1,-27.881,-6.927,0,27.675,2,41.519432,-86.239822,0,0.113,0.034440719,252.600006,11,47,15,24,12
406,29.264378,0,0,0.004,-0.027,8.189,-0.772,95.014,0,0,0,-29.375,2.125,-26.375,1.422,-0.133,9.906,0.673,-0.057,-0.043,-0.736,1,-27.881,-6.927,0,27.675,2,41.519432,-86.239822,0,0.113,0.034440719,252.600006,11,47,15,28,12
407,29.340378,0,-0.008,0.004,-0.02,8.189,-0.772,95.014,0,0,0,-28.312,1.125,-27.938,1.43,-0.133,9.898,0.673,-0.057,-0.043,-0.736,1,-32.09,-7.431,0,27.675,2,41.519432,-86.239822,0,0.015,0.004571777,252.600006,11,47,15,36,12
408,29.419378,0,-0.008,0.043,0.02,8.189,-0.772,95.014,0,0,0,-29.25,2.938,-29,1.43,-0.133,9.898,0.673,-0.057,-0.043,-0.736,1,-32.09,-7.431,0,27.675,2,41.519432,-86.239822,0,0.027,0.008229198,252.600006,11,47,15,44,12
409,29.464378,0,-0.008,0.004,-0.02,8.194,-0.767,95.014,0,0,0,-29.75,3.125,-28.188,1.43,-0.133,9.898,0.673,-0.057,-0.043,-0.736,1,-32.09,-7.431,0,27.675,2,41.519432,-86.239822,0,0.169,0.051508686,252.600006,11,47,15,48,12
410,29.618378,0,-0.047,0.004,0.02,8.194,-0.767,95.014,0,0,0,-29.125,2.5,-30.188,1.422,-0.133,9.898,0.673,-0.057,-0.043,-0.736,1,-32.09,-7.431,0,27.675,2,41.519432,-86.239822,0,0.122,0.037183785,252.600006,11,47,15,64,12
411,29.698378,0,-0.047,0.043,0.012,8.194,-0.767,95.014,0,0,0,-27.562,1.312,-27.562,1.43,-0.133,9.906,0.673,-0.057,-0.043,-0.736,1,-27.881,-6.927,0,27.675,2,41.519432,-86.239822,0,0.11,0.033526364,252.600006,11,47,15,72,12
412,29.743378,0,-0.574,-0.238,-0.023,8.194,-0.767,95.014,-2.798,-3.917,-0.448,-29.5,0.875,-27.375,1.422,-0.156,9.828,0.673,-0.057,-0.043,-0.736,1,-27.881,-6.927,0,27.675,2,41.519432,-86.239822,0,0.039,0.01188662,252.600006,11,47,15,76,12
413,29.827377,0,-0.414,0.219,-0.199,8.244,-0.862,95.116,-0.224,-1.343,-0.224,-29.875,4.062,-28.062,1.414,-0.156,9.812,0.673,-0.058,-0.043,-0.736,1,-32.09,-7.431,0,27.675,2,41.519432,-86.239822,0,0.042,0.012800975,252.600006,11,47,15,84,12
414,29.866358,0,-0.359,0.105,0.359,8.322,-0.948,95.045,-0.448,3.917,0.448,-26.875,2.062,-27.312,1.406,-0.195,9.789,0.673,-0.059,-0.043,-0.736,1,-32.09,-7.431,0,27.675,2,41.519432,-86.239822,0,0.196,0.059737885,252.600006,11,47,15,88,12
415,29.947378,0,-0.484,0.219,0.059,8.221,-1.048,95.029,0.895,-2.126,-0.56,-29.75,3.25,-29.125,1.406,-0.195,9.781,0.673,-0.059,-0.042,-0.736,1,-24.725,-6.523,0,27.675,2,41.519432,-86.239822,0,0.152,0.046327339,252.600006,11,47,15,96,12
416,30.026379,0,0.262,0.426,-0.316,8.209,-0.998,95.042,1.902,-0.895,0.895,-28.188,3.25,-28,1.391,-0.18,9.773,0.673,-0.059,-0.042,-0.736,1,-32.09,-7.431,0,27.675,2,41.519432,-86.239822,0,0.034,0.010362694,252.600006,11,47,16,4,12
417,30.063377,0,0.289,-0.117,0.047,8.176,-0.827,95.015,-0.448,-0.783,-0.56,-28.5,2.312,-27.75,1.398,-0.164,9.758,0.673,-0.057,-0.043,-0.736,1,-32.09,-7.431,0,27.675,2,41.519432,-86.239822,0,0.14,0.042669918,252.600006,11,47,16,8,12
418,30.147379,0,0.145,-0.484,0.668,8.214,-0.869,95.042,-1.567,-0.671,-0.56,-27.438,0.812,-28.312,1.398,-0.172,9.75,0.673,-0.058,-0.043,-0.736,1,-27.881,-6.927,0,27.675,2,41.519432,-86.239822,0,0.15,0.045717769,252.600006,11,47,16,16,12
419,30.226377,0,-0.039,0.121,-0.32,8.175,-1.015,95.026,-1.007,0.56,1.007,-28.375,1.375,-27.562,1.383,-0.203,9.75,0.673,-0.059,-0.042,-0.736,1,-32.09,-7.431,0,27.675,2,41.519432,-86.239822,0,0.007,0.002133496,252.600006,11,47,16,24,12
420,30.262379,0,-0.152,0.168,0.215,8.126,-1.03,94.986,2.686,-0.56,-0.56,-26.812,2.188,-28.25,1.383,-0.188,9.742,0.673,-0.058,-0.041,-0.736,1,-27.881,-6.927,0,27.675,2,41.519432,-86.239822,0,0.057,0.017372752,252.600006,11,47,16,28,12
421,30.346378,0,-0.078,0.004,0.414,8.149,-0.879,95.011,2.014,0,-0.448,-29.188,1.375,-27.062,1.383,-0.172,9.734,0.673,-0.058,-0.042,-0.736,1,-32.09,-7.431,0,27.675,2,41.519432,-86.239822,0,0.083,0.025297165,252.600006,11,47,16,36,12
422,30.422379,0,0.23,-0.102,0.145,8.148,-0.849,95.013,-1.679,0.56,-0.112,-29.062,0.562,-27.75,1.383,-0.18,9.734,0.673,-0.057,-0.043,-0.736,1,-35.246,-7.788,0,27.675,2,41.519432,-86.239822,0,0.108,0.032916794,252.600006,11,47,16,44,12
423,30.462378,0,0.082,0,0.336,8.109,-0.996,94.993,-0.448,1.007,0.783,-26.188,0.062,-28.188,1.375,-0.203,9.734,0.673,-0.058,-0.041,-0.736,1,-32.09,-7.431,0,27.675,2,41.519432,-86.239822,0,0.103,0.031392868,252.600006,11,47,16,48,12
424,30.546377,0,0.023,0.027,0.191,8.031,-1.033,94.932,1.567,1.231,1.119,-26.188,-0.5,-26.812,1.367,-0.203,9.727,0.674,-0.058,-0.041,-0.735,1,-35.246,-7.788,0,27.675,2,41.519432,-86.239822,0,0.181,0.055166108,252.600006,11,47,16,56,12
425,30.616379,0,-0.086,0.18,0.113,7.966,-0.921,94.875,3.245,0.448,0.783,-25.688,-0.625,-28.062,1.352,-0.156,9.727,0.674,-0.057,-0.041,-0.735,1,-32.09,-7.431,0,27.675,2,41.519432,-86.239822,0,0.037,0.01127705,252.600006,11,47,16,64,12
426,30.739378,0,-0.086,0.18,0.113,7.938,-0.745,94.848,0.224,-0.112,-0.336,-26.938,0.188,-28.625,1.43,-0.156,9.922,0.675,-0.055,-0.042,-0.735,1,-27.881,-6.927,0,27.675,2,41.519432,-86.239822,0,0.059,0.017982322,252.699997,11,47,16,76,12
427,30.817377,0,0.027,-0.195,0.082,8.019,-0.997,94.895,-1.79,-0.336,-0.56,-28.312,4.5,-28.188,1.43,-0.148,9.914,0.674,-0.057,-0.041,-0.735,1,-32.09,-7.431,0,27.675,2,41.519432,-86.239822,0,0.02,0.006095703,252.600006,11,47,16,84,12
428,30.86138,0,-0.008,0.074,0.004,8.04,-0.902,94.891,-0.112,-0.112,-0.224,-29.125,2.062,-29.75,1.43,-0.164,9.914,0.674,-0.057,-0.042,-0.735,1,-27.881,-6.927,0,27.675,2,41.519432,-86.239822,0,0.307,0.093569034,252.699997,11,47,16,88,12
429,30.946379,0,-0.008,0.09,-0.074,8.046,-0.812,94.888,2.462,0.224,0.224,-29.75,4.562,-31,1.43,-0.148,9.914,0.674,-0.056,-0.042,-0.735,1,-21.568,-6.092,0,27.675,2,41.519432,-86.239822,0,0.062,0.018896678,252.699997,11,47,16,96,12
430,31.024378,0,0,0.004,-0.027,8.054,-0.782,94.89,-1.902,-0.112,0.112,-28.562,2.5,-26.938,1.422,-0.125,9.906,0.674,-0.056,-0.042,-0.735,1,-32.09,-7.431,0,27.675,2,41.519432,-86.239822,0,0.079,0.024078025,252.699997,11,47,17,4,12
431,31.071379,0,-0.031,-0.055,-0.027,8.083,-0.979,94.9,-0.783,-0.336,0.112,-26.75,1.5,-27.688,1.414,-0.148,9.906,0.674,-0.058,-0.041,-0.735,1,-32.09,-7.431,0,27.675,2,41.519432,-86.239822,0,0.076,0.02316367,252.699997,11,47,17,8,12
432,31.146378,0,0.008,0.012,0.051,8.098,-0.983,94.9,0.895,-0.112,-0.112,-26.938,3.312,-29.312,1.414,-0.148,9.906,0.674,-0.058,-0.041,-0.735,1,-35.246,-7.788,0,27.675,2,41.519432,-86.239822,0,0.088,0.026821091,252.699997,11,47,17,16,12
433,31.224379,0,-0.023,-0.004,0.012,8.098,-0.878,94.907,2.014,-0.224,-0.112,-30,1.562,-27.5,1.414,-0.125,9.906,0.674,-0.057,-0.042,-0.735,1,-38.402,-8.129,0,27.675,2,41.519432,-86.239822,0,0.194,0.059128315,252.699997,11,47,17,24,12
434,31.271378,0,0.008,0.043,0.012,8.11,-0.793,94.913,-1.007,-0.224,0,-27,0.312,-27.375,1.414,-0.125,9.906,0.674,-0.057,-0.043,-0.735,1,-45.767,-8.875,0,27.675,2,41.519432,-86.239822,0,0.354,0.107893935,252.699997,11,47,17,28,12
435,31.344378,0,0.043,-0.035,0.043,8.118,-0.877,94.917,-1.79,-0.112,0,-26.625,3,-27.625,1.414,-0.125,9.906,0.674,-0.057,-0.042,-0.735,1,-35.246,-7.788,0,27.675,2,41.519432,-86.239822,0,0.103,0.031392868,252.699997,11,47,17,36,12
436,31.394358,0,-0.031,-0.035,0.082,8.125,-0.92,94.924,0,-0.112,-0.224,-28.5,2.688,-28.25,1.414,-0.141,9.914,0.674,-0.058,-0.042,-0.735,1,-32.09,-7.431,0,27.675,2,41.519432,-86.239822,0,0.219,0.066747943,252.699997,11,47,17,40,12
437,31.464378,0,0.008,-0.043,0.004,8.123,-0.861,94.928,1.679,0.112,-0.336,-27.5,0.875,-27.062,1.414,-0.125,9.914,0.674,-0.057,-0.042,-0.735,1,-32.09,-7.431,0,27.675,2,41.519432,-86.239822,0,0.216,0.065833587,252.699997,11,47,17,48,12
438,31.502378,0,0.082,-0.051,-0.004,8.099,-0.763,94.926,0.671,0.56,0.336,-26.375,1.562,-28.125,1.414,-0.117,9.922,0.674,-0.057,-0.043,-0.735,1,-32.09,-7.431,0,27.675,2,41.519432,-86.239822,0,0.057,0.017372752,252.699997,11,47,17,52,12
439,31.619377,0,-0.031,0.035,0.066,8.063,-0.741,94.902,0,0.783,0.56,-28.188,0.188,-27.75,1.406,-0.125,9.922,0.674,-0.056,-0.043,-0.735,1,-35.246,-7.788,0,27.675,2,41.519432,-86.239822,0,0.093,0.028345017,252.699997,11,47,17,64,12
440,31.660378,0,-0.07,0.379,0.418,7.984,-0.777,94.856,2.238,2.91,1.902,-27.75,-0.75,-26.312,1.391,-0.164,9.961,0.674,-0.056,-0.042,-0.735,1,-35.246,-7.788,0,27.675,2,41.519432,-86.239822,0,0.127,0.038707711,252.699997,11,47,17,68,12
441,31.744377,0,-0.062,0.609,0.602,7.715,-0.665,94.705,2.574,3.581,1.455,-27.812,4,-28.938,1.359,-0.148,9.977,0.676,-0.053,-0.041,-0.734,1,-38.402,-8.129,0,27.675,2,41.519432,-86.239822,0,0.135,0.041145992,252.699997,11,47,17,76,12
442,31.781378,0,-0.09,0.129,-0.082,7.371,-0.64,94.614,1.007,4.364,1.455,-26.562,3.125,-28.5,1.289,-0.148,10,0.676,-0.051,-0.039,-0.734,1,-38.402,-8.129,0,27.675,2,41.519432,-86.239822,0,0.11,0.033526364,252.699997,11,47,17,80,12
443,31.864378,0,0.453,0.402,0.684,7.052,-0.729,94.589,-1.343,7.61,0.336,-27.062,1,-28,1.242,-0.148,10,0.677,-0.049,-0.037,-0.734,1,-42.611,-8.563,0,27.675,2,41.519432,-86.239822,0,0.262,0.079853703,252.699997,11,47,17,88,12
444,31.947378,0,0.242,0.051,0.5,6.634,-0.8,94.582,1.119,9.96,0.895,-26.25,-2.875,-27.188,1.117,-0.148,10.031,0.677,-0.047,-0.034,-0.734,1,-38.402,-8.129,0,27.675,2,41.519432,-86.239822,0,0.125,0.038098141,252.699997,11,47,17,96,12
445,32.064377,0,0.062,0.488,1.586,5.837,-0.605,94.467,8.617,11.302,3.917,-27.5,1.438,-28.875,0.914,-0.008,10.07,0.678,-0.041,-0.031,-0.733,1,-38.402,-8.129,0,27.675,2,41.519432,-86.239822,0,0.122,0.037183785,252.800003,11,47,18,8,12
446,32.102379,0,0.211,0.188,1.496,4.128,1.412,93.605,18.912,13.317,7.274,-26.375,2.562,-30.375,0.711,0.297,10.109,0.684,-0.018,-0.034,-0.728,1,-38.402,-8.129,0,27.675,2,41.519432,-86.239822,0,0.304,0.092654678,252.800003,11,47,18,12,12
447,32.183376,0,0.238,0.293,1.188,3.561,2.344,93.25,24.507,14.212,8.617,-23.875,1.5,-29.562,0.633,0.422,10.117,0.687,-0.009,-0.036,-0.726,1,-38.402,-8.129,0,27.675,2,41.519432,-86.239822,0,0.491,0.149649497,252.800003,11,47,18,20,12
448,32.220379,0,0.371,-0.051,0.828,2.838,3.55,92.825,22.605,16.114,4.924,-25,1.5,-30.688,0.398,0.805,10.125,0.689,0.003,-0.039,-0.723,1,-35.246,-7.788,0,27.675,2,41.519432,-86.239822,27.870001,0.655,0.199634258,252.899994,11,47,18,24,12
449,32.303379,0,0.48,0.066,1.051,1.751,5.079,92.385,20.143,16.898,4.924,-22.188,-2.375,-28.75,0.328,0.914,10.141,0.692,0.02,-0.043,-0.72,1,-32.09,-7.431,0,27.675,2,41.519432,-86.239822,0,0.398,0.12130448,252.899994,11,47,18,32,12
450,32.340378,0,0.66,-0.273,1.078,0.932,5.975,92.069,14.212,16.226,3.133,-20.625,0.625,-29.5,0.039,1.203,10.141,0.694,0.03,-0.043,-0.718,1,-27.881,-6.927,0,27.675,2,41.519432,-86.239822,82.870003,0.829,0.25266687,252.899994,11,47,18,36,12
451,32.423378,0,0.586,-0.266,1.148,-0.149,6.951,91.725,11.526,14.324,2.574,-20.438,-3.688,-29.375,-0.031,1.273,10.148,0.695,0.043,-0.043,-0.716,1,-27.881,-6.927,0,27.675,2,41.519432,-86.239822,91.169998,0.739,0.225236208,253,11,47,18,44,12
452,32.504379,0,0.609,-0.254,1.07,-1.075,7.813,91.439,9.288,10.407,1.902,-17.75,-1.312,-32.562,-0.172,1.422,10.156,0.696,0.054,-0.042,-0.715,1,-21.568,-6.092,0,27.675,2,41.519432,-86.239822,77.349998,0.937,0.285583664,253,11,47,18,52,12
453,32.583378,0,0.551,-0.109,-0.141,-1.361,8.163,91.281,3.469,3.469,1.79,-17.75,-1.312,-32.562,-0.203,1.477,10.172,0.697,0.058,-0.043,-0.714,1,-27.881,-6.927,0,27.675,2,41.519432,-86.239822,0,0.498,0.151782993,253.100006,11,47,18,60,12
454,32.620377,0,0.711,-0.051,-0.613,-1.355,8.253,91.187,0.56,-3.245,2.35,-18,-0.625,-31.062,-0.172,1.492,10.188,0.697,0.059,-0.043,-0.713,1,-56.288,-9.842,0,27.675,2,41.519432,-86.239822,117.129997,1.077,0.328253581,253.100006,11,47,18,64,12
455,32.706379,0,0.91,-0.625,-0.781,-1.074,8.292,91.063,0,-5.26,1.79,-19.75,-4.188,-32.312,-0.125,1.492,10.203,0.698,0.057,-0.045,-0.712,1,-56.288,-9.842,0,27.675,2,41.519432,-86.239822,128.820007,0.964,0.293812862,253.100006,11,47,18,72,12
456,32.821377,0,0.699,0.164,-1.105,-0.495,8.218,91.026,-1.231,-7.274,1.119,-17.75,-1.75,-31.688,0,1.477,10.211,0.699,0.053,-0.048,-0.712,1,-53.132,-9.562,0,27.675,2,41.519432,-86.239822,144.100006,1.327,0.404449863,253.300003,11,47,18,84,12
457,32.900379,0,0.82,-0.316,-1.113,0.193,8.02,90.921,-3.245,-10.519,3.581,-21.188,-3.75,-30.188,0.25,1.406,10.219,0.7,0.048,-0.051,-0.711,1,-53.132,-9.562,0,27.675,2,41.519432,-86.239822,156.520004,1.553,0.473331301,253.300003,11,47,18,92,12
458,32.952377,0,0.547,-0.445,-1.367,1.741,7.751,90.639,-0.448,-11.526,4.141,-18.75,-4.062,-29.875,0.438,1.391,10.211,0.702,0.037,-0.059,-0.709,1,-45.767,-8.875,0,27.675,2,41.519432,-86.239822,160.119995,1.733,0.528192624,253.399994,11,47,18,96,12
459,33.022377,0,0.328,-0.684,-1.527,2.423,7.922,90.515,5.371,-12.533,4.476,-21.75,0.125,-29.75,0.594,1.438,10.18,0.703,0.034,-0.064,-0.707,1,-45.767,-8.875,0,27.675,2,41.519428,-86.239822,164.059998,2.376,0.724169461,253.399994,11,47,19,4,12
460,33.070377,0,-0.051,-0.801,-1.496,3.285,8.274,90.312,7.386,-12.645,6.267,-24.688,-1.5,-29.25,0.758,1.5,10.148,0.705,0.031,-0.071,-0.705,1,-53.132,-9.562,0,27.675,2,41.519428,-86.239822,164.589996,2.292,0.69856751,253.399994,11,47,19,8,12
461,33.145378,0,-0.027,-0.586,-1.348,4.074,8.759,90.049,9.96,-10.183,6.267,-22.125,-2.688,-28.75,0.852,1.555,10.117,0.706,0.029,-0.079,-0.703,1,-45.767,-8.875,0,27.675,2,41.519428,-86.239822,169.389999,2.037,0.620847303,253.5,11,47,19,16,12
462,33.225376,0,-0.039,-1.051,-1.469,4.595,9.314,89.833,13.429,-5.483,5.036,-22.688,-0.875,-30.312,0.992,1.703,10.055,0.708,0.029,-0.086,-0.701,1,-45.767,-8.875,0,27.675,2,41.519428,-86.239822,181.020004,2.304,0.702224931,253.5,11,47,19,24,12
463,33.259377,0,-0.199,-0.602,-0.625,5.04,10.442,89.482,16.786,0.448,5.036,-23.312,-3.25,-28.5,1.047,1.906,9.984,0.709,0.034,-0.095,-0.697,1,-45.767,-8.875,0,27.675,2,41.519428,-86.239822,181.759995,2.714,0.827186833,253.5,11,47,19,28,12
464,33.345379,0,-0.184,-0.375,-0.633,5.093,11.459,89.198,18.912,2.798,3.469,-23.625,-4.312,-27.438,1.039,1.984,9.953,0.711,0.04,-0.102,-0.695,1,-48.923,-9.176,0,27.675,2,41.519428,-86.239822,185.300003,2.69,0.81987199,253.5,11,47,19,36,12
465,33.379379,0,1.035,-1.094,-0.508,4.949,12.582,89.032,20.367,2.91,-2.574,-21.938,-4.312,-28.438,1,2.266,9.859,0.711,0.048,-0.107,-0.693,1,-45.767,-8.875,0,27.675,2,41.519428,-86.239822,186.089996,2.675,0.815300213,253.600006,11,47,19,40,12
466,33.463379,0,1.539,-1.285,0.082,4.863,13.853,89.265,23.388,-1.119,-9.4,-22.062,-3.75,-28.062,0.992,2.375,9.828,0.709,0.056,-0.115,-0.693,1,-45.767,-8.875,0,27.675,2,41.519424,-86.239822,187.970001,2.999,0.914050594,253.600006,11,47,19,48,12
467,33.544376,0,0.305,-0.641,-0.719,4.974,15.551,90.21,31.557,-8.952,-20.367,-24.125,-4,-27.062,1.039,2.812,9.68,0.703,0.065,-0.126,-0.697,1,38.403,8.129,8.129,27.772,2,41.519424,-86.239822,188.539993,3.303,1.006705273,253.600006,11,47,19,56,12
468,33.627377,0,-0.922,0.562,-1.453,5.203,17.81,91.728,20.926,-4.588,-17.233,-23.062,-9.562,-25.125,1.078,3.18,9.531,0.692,0.076,-0.142,-0.703,1,27.881,6.927,6.927,27.772,2,41.519424,-86.239822,191.509995,3.522,1.073453215,253.600006,11,47,19,64,12
469,33.668377,0,-0.586,0.301,-0.41,5.159,19.248,93.055,-9.064,0.895,-11.191,-22.625,-10,-24.625,1.039,3.234,9.484,0.683,0.083,-0.152,-0.71,1,3.683,2.517,0,27.772,2,41.519424,-86.239822,190.089996,3.465,1.056080463,253.5,11,47,19,68,12
470,33.741379,0,-0.613,-0.066,-0.062,4.882,18.703,93.925,-15.219,0.783,-11.862,-22.062,-10.312,-26.688,1.008,3.125,9.5,0.678,0.08,-0.147,-0.716,1,-0.526,-0.951,0,27.675,2,41.519424,-86.239822,186.759995,3.136,0.955806157,253.5,11,47,19,76,12
471,33.78838,0,-0.621,-0.035,0.148,4.487,17.202,95.03,-17.122,1.343,-13.764,-21.5,-11.75,-25.938,0.938,2.898,9.555,0.672,0.072,-0.136,-0.725,1,-6.839,-3.431,0,27.675,2,41.519424,-86.239822,185.229996,3.398,1.03565986,253.5,11,47,19,80,12
472,33.862377,0,-0.168,0.305,0.977,4.389,16.718,95.389,-16.226,-0.224,-12.422,-23,-12.5,-25.688,0.914,2.812,9.578,0.67,0.07,-0.133,-0.727,1,-3.682,-2.517,0,27.675,2,41.519424,-86.239822,185.600006,3.229,0.984151173,253.600006,11,47,19,88,12
473,33.954376,0,-0.105,0.43,0.723,4.241,15.518,96.374,-15.555,-1.231,-11.974,-23.812,-10.125,-25,0.891,2.609,9.625,0.664,0.063,-0.125,-0.735,1,-6.839,-3.431,0,27.675,2,41.519424,-86.239822,184.300003,3.317,1.010972265,253.600006,11,47,19,96,12
474,33.998379,0,-0.184,0.984,-0.266,4.38,14.009,97.518,-17.233,-2.798,-13.205,-23.875,-8.562,-27.375,0.891,2.5,9.648,0.657,0.052,-0.117,-0.743,1,-6.839,-3.431,0,27.675,2,41.519424,-86.239822,184.779999,3.173,0.967083206,253.600006,11,47,20,0,12
475,34.063377,0,-0.121,0.211,-0.59,4.5,13.343,97.917,-17.122,-4.141,-7.833,-21.125,-5.5,-27.375,0.922,2.234,9.695,0.655,0.047,-0.113,-0.746,1,-3.682,-2.517,0,27.675,2,41.519421,-86.239822,185.059998,3.392,1.033831149,253.600006,11,47,20,8,12
476,34.108379,0,-0.254,-0.16,-0.574,4.668,12.281,98.394,-13.205,-3.021,-4.924,-22.812,-7.812,-26.812,0.945,2.086,9.719,0.652,0.039,-0.107,-0.749,1,-3.682,-2.517,0,27.675,2,41.519421,-86.239822,184.990005,3.352,1.021639744,253.600006,11,47,20,12,12
477,34.183376,0,0.23,-0.09,-0.305,4.79,11.821,98.594,-10.295,-3.805,-3.917,-23.625,-7.312,-27.688,0.961,1.992,9.727,0.651,0.036,-0.105,-0.751,1,-6.839,-3.431,0,27.675,2,41.519421,-86.239822,180.970001,3.382,1.030783298,253.600006,11,47,20,20,12
478,34.263378,0,0.398,-0.25,0.305,4.957,11.465,98.779,-4.476,-4.588,-4.364,-21.938,-5,-27.812,1,1.898,9.734,0.65,0.032,-0.104,-0.752,1,-6.839,-3.431,0,27.675,2,41.519421,-86.239822,182.589996,3.369,1.026821091,253.600006,11,47,20,28,12
479,34.30938,0,0.941,-0.203,1.133,5.477,11.24,99.359,2.798,-7.05,-5.931,-22.375,-8.25,-26.25,1.07,1.906,9.711,0.647,0.027,-0.105,-0.755,1,-6.839,-3.431,0,27.675,2,41.519421,-86.239822,185.050003,3.782,1.152697348,253.600006,11,47,20,32,12
480,34.383377,0,0.004,-0.465,0.988,5.865,11.48,99.807,4.364,-7.386,-5.819,-22.188,-6.375,-26.688,1.125,1.93,9.703,0.644,0.025,-0.109,-0.757,1,-3.682,-2.517,0,27.675,2,41.519417,-86.239822,186.279999,3.911,1.19201463,253.699997,11,47,20,40,12
481,34.464378,0,-0.758,-0.902,0.332,6.265,11.816,100.196,6.714,-6.155,-4.924,-23.375,-6.5,-27,1.203,2.008,9.672,0.641,0.024,-0.114,-0.758,1,-3.682,-2.517,0,27.675,2,41.519417,-86.239822,183.630005,3.879,1.182261506,253.699997,11,47,20,48,12
482,34.588379,0,-0.703,0.266,-0.633,6.696,12.526,100.771,9.512,-5.707,-6.602,-23.438,-5.812,-27.562,1.266,2.141,9.641,0.638,0.025,-0.121,-0.76,1,-6.839,-3.431,0,27.675,2,41.519417,-86.239822,188.5,3.482,1.06126181,253.699997,11,47,20,60,12
483,34.66338,0,-0.574,-0.004,-1.062,6.955,13.166,101.372,2.35,0.224,-4.924,-24.812,-8.938,-24.75,1.266,2.242,9.602,0.634,0.026,-0.127,-0.763,1,-3.682,-2.517,0,27.675,2,41.519417,-86.239822,188.669998,3.433,1.046327339,253.699997,11,47,20,68,12
484,34.787376,0,-0.035,0.004,-0.105,6.87,13.45,102.034,-2.238,0.448,-6.602,-24.75,-8.312,-26.562,1.234,2.25,9.594,0.629,0.027,-0.128,-0.766,1,-0.526,-0.951,0,27.675,2,41.519417,-86.239822,187.350006,3.641,1.109722646,253.699997,11,47,20,80,12
485,34.861378,0,0.277,0.898,0.984,6.803,13.149,102.55,-15.219,-3.133,-12.31,-25.875,-9.375,-24.625,1.219,2.07,9.625,0.626,0.026,-0.126,-0.769,1,-3.682,-2.517,0,27.675,2,41.519413,-86.239822,188.639999,3.612,1.100883877,253.699997,11,47,20,88,12
486,34.951378,0,-0.188,0.266,1.395,6.886,11.565,103.944,-18.8,-3.021,-10.407,-24.125,-7.312,-25.625,1.227,1.852,9.664,0.617,0.015,-0.116,-0.779,1,3.683,2.517,0,27.772,2,41.519413,-86.239822,185.029999,3.747,1.142029869,253.699997,11,47,20,96,12
487,35.067379,0,-0.281,-0.199,0.629,7.002,10.157,104.781,-17.01,-4.364,-11.75,-23.5,-9.312,-24.812,1.242,1.602,9.711,0.611,0.006,-0.107,-0.784,1,-0.526,-0.951,0,27.675,2,41.519413,-86.239822,183.029999,3.738,1.139286803,253.699997,11,47,21,8,12
488,35.14238,0,-0.551,-0.758,-0.223,7.213,8.92,105.762,-11.638,-2.91,-8.393,-24.5,-7.875,-25.438,1.289,1.32,9.766,0.604,-0.003,-0.1,-0.79,1,-3.682,-2.517,0,27.675,2,41.519409,-86.239822,185.949997,3.74,1.139896373,253.800003,11,47,21,16,12
489,35.221378,0,-0.441,0.062,-0.508,7.455,7.38,107.032,-9.848,-1.902,-6.938,-23.812,-6.562,-26.562,1.289,1.227,9.773,0.595,-0.014,-0.09,-0.798,1,-6.839,-3.431,0,27.675,2,41.519409,-86.239822,186.259995,3.661,1.115818348,253.800003,11,47,21,24,12
490,35.345379,0,0.309,-0.004,-0.375,7.52,6.865,107.324,-14.772,-3.469,-4.252,-25.625,-5.312,-25.875,1.312,1.008,9.797,0.593,-0.017,-0.087,-0.8,1,-6.839,-3.431,0,27.675,2,41.519409,-86.239822,183.820007,3.862,1.177080158,253.800003,11,47,21,36,12
491,35.42038,0,-0.086,0.465,0.789,8.16,4.037,108.086,-20.591,-5.148,-4.252,-23.312,-2.875,-28.625,1.398,0.633,9.82,0.587,-0.037,-0.07,-0.805,1,-11.047,-4.36,0,27.675,2,41.519409,-86.239822,184.759995,3.902,1.189271564,253.800003,11,47,21,44,12
492,35.502377,0,-0.168,0.543,0.863,8.595,2.58,108.588,-18.464,-5.931,-6.267,-23.625,-1.25,-27.688,1.461,0.422,9.828,0.583,-0.048,-0.062,-0.809,1,-53.132,-9.562,0,27.675,2,41.519409,-86.239822,184.259995,3.684,1.122828406,253.800003,11,47,21,52,12
493,35.583378,0,-0.746,-0.195,0.043,8.718,1.805,109.34,-14.436,-3.805,-8.393,-24.75,-2.062,-27.5,1.469,0.344,9.828,0.578,-0.053,-0.057,-0.813,1,-53.132,-9.562,0,27.675,2,41.519409,-86.239822,185.169998,3.71,1.130752819,253.800003,11,47,21,60,12
494,35.706379,0,-0.59,-0.211,-1.008,8.569,1.698,110.163,-5.819,0.448,-10.519,-25.562,-4.688,-27.75,1.461,0.273,9.844,0.572,-0.053,-0.055,-0.817,1,-53.132,-9.562,0,27.675,2,41.519405,-86.239822,185.279999,3.534,1.077110637,253.899994,11,47,21,72,12
495,35.782379,0,-0.52,0.188,-0.746,8.003,2.075,111.197,0.448,2.35,-8.952,-25.5,-2.688,-26.938,1.406,0.289,9.852,0.565,-0.047,-0.054,-0.822,1,-53.132,-9.562,0,27.675,2,41.519405,-86.239822,186.729996,3.659,1.115208778,253.899994,11,47,21,80,12
496,35.908379,0,-0.488,-0.105,-0.172,7.419,2.669,112.038,3.469,6.043,-9.624,-22.438,-4.562,-26.688,1.273,0.375,9.852,0.559,-0.041,-0.055,-0.826,1,-63.653,-10.466,0,27.675,2,41.519405,-86.239822,188.830002,3.414,1.040536422,253.899994,11,47,21,92,12
497,36.071377,0,0.305,0.043,0.457,6.295,4.405,113.951,10.967,7.274,-12.757,-20.062,-6.938,-28.438,1.156,0.523,9.852,0.546,-0.025,-0.062,-0.835,1,-53.132,-9.562,0,27.675,2,41.519402,-86.239822,190.199997,3.477,1.059737885,253.899994,11,47,22,8,12
498,36.150379,0,-0.137,-0.262,1.047,5.925,4.964,114.691,7.945,0.224,-10.631,-23.312,-5.938,-28.438,0.867,1.008,9.828,0.54,-0.02,-0.064,-0.839,1,-59.445,-10.114,0,27.675,2,41.519402,-86.239822,190.289993,3.533,1.076805852,253.899994,11,47,22,16,12
499,36.264378,0,0.172,-0.133,0.703,5.477,6.39,116.437,1.679,-2.91,-8.952,-21.375,-9.375,-27.375,0.867,1.078,9.828,0.528,-0.011,-0.072,-0.846,1,-59.445,-10.114,0,27.675,2,41.519402,-86.239822,191.889999,3.391,1.033526364,253.899994,11,47,22,28,12
500,36.340378,0,0.039,-0.121,-0.094,5.577,6.263,117.048,-12.645,-2.91,0.448,-19.75,-10.438,-25.625,0.906,0.914,9.844,0.523,-0.013,-0.072,-0.849,1,-32.09,-7.431,0,27.675,2,41.519402,-86.239822,192.729996,3.384,1.031392868,254,11,47,22,36,12
501,36.464378,0,-0.055,0.012,-0.332,5.846,4.749,117.057,-13.541,-1.567,3.021,-23.312,-6.375,-27.875,0.938,0.727,9.867,0.523,-0.022,-0.062,-0.85,1,-27.881,-6.927,0,27.675,2,41.519402,-86.239822,195.190002,3.529,1.075586711,254,11,47,22,48,12
502,36.53838,0,-0.066,0.41,0.098,5.85,3.704,116.852,-19.36,5.931,2.35,-21.875,-5.25,-28.188,0.891,0.375,9.898,0.524,-0.027,-0.054,-0.85,1,-27.881,-6.927,0,27.675,2,41.519398,-86.239822,191.770004,3.666,1.117342274,254,11,47,22,56,12
503,36.62138,0,-0.09,0.777,1.422,5.2,1.319,116.551,-30.774,5.819,-0.448,-22.5,-6.062,-28.375,0.781,-0.023,9.914,0.526,-0.033,-0.034,-0.849,1,-27.881,-6.927,0,27.675,2,41.519398,-86.239822,191.589996,3.695,1.126181042,254,11,47,22,64,12
504,36.744377,0,0.293,-0.309,1.422,4.827,-1.56,116.59,-44.874,-4.364,4.141,-22.062,-6.812,-27.875,0.781,-0.547,9.914,0.525,-0.043,-0.011,-0.85,1,-27.881,-6.927,0,27.675,2,41.519398,-86.23983,189.050003,3.477,1.059737885,254,11,47,22,76,12
505,36.818378,0,-0.125,0.539,0.344,5.189,-4.919,116.341,-55.393,-13.093,-5.036,-19.25,-3.938,-28.688,1.008,-1.586,9.805,0.525,-0.061,0.013,-0.849,1,-27.881,-6.927,0,27.675,2,41.51939,-86.23983,189.869995,3.349,1.020725389,254,11,47,22,84,12
506,36.865379,0,-0.059,0.195,-0.863,6.684,-11.359,116.615,-64.346,-9.288,-5.819,-22.438,3.125,-30.812,1.188,-2.508,9.602,0.517,-0.101,0.054,-0.848,1,-32.09,-7.431,0,27.675,2,41.51939,-86.23983,190.270004,3.261,0.993904297,254.100006,11,47,22,88,12
507,36.94838,0,-0.035,0.121,-0.91,7.439,-16.629,116.926,-72.627,-5.036,-6.714,-24.75,6.438,-33,1.234,-2.859,9.5,0.508,-0.13,0.089,-0.846,1,-35.246,-7.788,0,27.675,2,41.51939,-86.23983,192.600006,3.46,1.054556538,254.100006,11,47,22,96,12
508,37.146378,0,-0.273,0.508,-1.191,7.677,-23.741,117.551,-79.901,-1.007,-8.057,-24.125,13.562,-32.5,1.273,-4.133,9.023,0.494,-0.162,0.142,-0.842,1,-21.568,-6.092,0,27.675,2,41.51939,-86.23983,183.240005,3.507,1.068881439,254.100006,11,47,23,16,12
509,37.219379,0,-0.266,-0.051,-0.23,5.762,-31.969,118.543,-66.136,8.505,-3.245,-25,13.938,-32.125,0.922,-5.258,8.469,0.479,-0.182,0.212,-0.832,1,-32.09,-7.431,0,27.675,2,41.51939,-86.23983,182.220001,3.519,1.07253886,254.100006,11,47,23,24,12
510,37.298378,0,-0.641,0.246,-0.023,5.145,-30.551,118.41,22.381,1.231,2.238,-22.562,19.5,-32.625,0.836,-5.078,8.586,0.483,-0.172,0.204,-0.834,1,-38.402,-8.129,0,27.675,2,41.51939,-86.23983,182.009995,3.33,1.014934471,254.100006,11,47,23,32,12
511,37.379379,0,-0.051,0.684,0.18,5.117,-29.645,118.376,13.988,-5.036,-4.7,-24.125,18.562,-31.562,0.859,-4.797,8.742,0.485,-0.168,0.197,-0.835,1,-35.246,-7.788,0,27.675,2,41.519386,-86.23983,176.850006,3.315,1.010362694,254.199997,11,47,23,40,12
512,37.458378,0,0.184,1.223,0.539,5.589,-28.783,118.59,-7.05,-3.581,-8.281,-22.438,15.062,-31.75,0.945,-4.789,8.742,0.484,-0.167,0.189,-0.838,1,-42.611,-8.563,0,27.675,2,41.519386,-86.23983,175.960007,3.318,1.01127705,254.199997,11,47,23,48,12
513,37.53838,0,0.457,0.395,-1.453,6.317,-29.301,119.128,-0.112,-4.588,-7.945,-23.875,17.188,-32.5,1.055,-4.812,8.711,0.477,-0.174,0.191,-0.84,1,-45.767,-8.875,0,27.675,2,41.519386,-86.23983,176.210007,3.367,1.026211521,254.199997,11,47,23,56,12
