Line_Num,ESP32_Time,ID0,LinAcc_x,LinAcc_y,LinAcc_z,Pitch_deg,Roll_deg,Yaw_deg,Gyro_deg_x,Gyro_deg_y,Gyro_deg_z,Magnet_uT_x,Magnet_uT_y,Magnet_uT_z,Grav_x,Grav_y,Grav_z,Quat_re,Quat_i,Quat_j,Quat_k,ID1,RawPress_Pa,RawAirspeed,CorrAirspeed,temp_C,ID2,latitude,longitude,heading,gnd_speed,altitude,hours,mins,secs,hundredths,satellites
1,0.066683,0,-0.043,0.035,-0.043,6.667,1.942,179.784,1.007,0.112,-0.224,-3.812,-16.250,-31.062,1.156,0.297,9.883,0.003,-0.058,-0.017,-0.998,1,-38.402,-8.129,0.000,24.548,2,0.000000,0.000000,0.000000,0.000,0.000000,0,0,0,0,0
2,0.086794,0,-0.043,0.027,-0.043,6.667,1.978,179.793,1.567,0.000,-0.224,-3.125,-13.688,-28.875,1.156,0.305,9.883,0.003,-0.058,-0.017,-0.998,1,-38.402,-8.129,0.000,24.548,2,0.000000,0.000000,0.000000,0.000,0.000000,0,0,0,0,0
3,0.098781,0,-0.043,-0.012,-0.004,6.667,1.992,179.794,1.343,0.000,-0.112,-4.938,-14.875,-29.312,1.156,0.305,9.883,0.003,-0.058,-0.017,-0.998,1,-42.611,-8.563,0.000,24.548,2,0.000000,0.000000,0.000000,0.000,0.000000,0,0,0,0,0
4,0.126677,0,-0.004,-0.059,-0.004,6.674,2.013,179.795,1.231,0.000,-0.112,-3.062,-14.375,-28.375,1.156,0.312,9.883,0.003,-0.058,-0.018,-0.998,1,-38.402,-8.129,0.000,24.548,2,0.000000,0.000000,0.000000,0.000,0.000000,0,0,0,0,0
5,0.166678,0,-0.004,-0.020,-0.004,6.674,2.027,179.796,1.007,0.000,0.224,-5.812,-14.125,-28.250,1.156,0.312,9.883,0.003,-0.058,-0.018,-0.998,1,-38.402,-8.129,0.000,24.548,2,0.000000,0.000000,0.000000,0.000,0.000000,0,0,0,0,0
6,0.206675,0,0.004,0.027,-0.004,6.667,2.041,179.797,0.112,0.224,0.112,-2.875,-15.062,-29.438,1.156,0.312,9.883,0.003,-0.058,-0.018,-0.998,1,-42.611,-8.563,0.000,24.548,2,0.000000,0.000000,0.000000,0.000,0.000000,0,0,0,0,0
7,0.224677,0,-0.035,0.066,-0.004,6.667,2.005,179.787,-1.007,0.112,0.336,-2.188,-14.188,-30.125,1.148,0.305,9.883,0.003,-0.058,-0.018,-0.998,1,-38.402,-8.129,0.000,24.548,2,0.000000,0.000000,0.000000,0.000,0.000000,0,0,0,0,0
8,0.243677,0,0.004,-0.012,-0.004,6.667,1.998,179.780,-0.895,0.000,0.224,-4.875,-15.125,-29.750,1.148,0.305,9.883,0.003,-0.058,-0.018,-0.998,1,-35.246,-7.788,0.000,24.548,2,0.000000,0.000000,0.000000,0.000,0.000000,0,0,0,0,0
9,0.276677,0,0.043,0.035,0.043,6.667,1.970,179.778,-0.895,0.000,0.000,-1.688,-18.250,-29.250,1.148,0.297,9.883,0.003,-0.058,-0.017,-0.998,1,-35.246,-7.788,0.000,24.548,2,0.000000,0.000000,0.000000,0.000,0.000000,0,0,0,0,0
10,0.302670,0,0.043,0.035,0.043,6.667,1.927,179.769,-1.119,0.224,-0.112,-5.375,-15.375,-28.000,1.148,0.297,9.875,0.003,-0.058,-0.017,-0.998,1,-35.246,-7.788,0.000,24.548,2,0.000000,0.000000,0.000000,0.000,0.000000,0,0,0,0,0
11,0.318781,0,0.082,-0.004,0.082,6.667,1.899,179.767,-0.895,0.112,-0.112,-4.312,-13.375,-29.750,1.148,0.289,9.875,0.003,-0.058,-0.017,-0.998,1,-38.402,-8.129,0.000,24.548,2,0.000000,0.000000,0.000000,0.000,0.000000,0,0,0,0,0
12,0.343672,0,-0.035,0.043,0.035,6.667,1.878,179.773,-0.671,-0.112,-0.112,-5.250,-15.500,-29.250,1.148,0.297,9.883,0.003,-0.058,-0.016,-0.998,1,-38.402,-8.129,0.000,24.548,2,0.000000,0.000000,0.000000,0.000,0.000000,0,0,0,0,0
13,0.355782,0,-0.035,0.035,-0.004,6.660,1.864,179.772,-0.448,0.000,-0.112,-5.875,-15.438,-30.812,1.148,0.297,9.883,0.003,-0.058,-0.016,-0.998,1,-38.402,-8.129,0.000,24.548,2,0.000000,0.000000,0.000000,0.000,0.000000,0,0,0,0,0
14,0.382672,0,0.004,0.035,0.035,6.660,1.858,179.779,-0.336,0.000,-0.336,-6.938,-14.812,-28.938,1.148,0.297,9.883,0.003,-0.058,-0.016,-0.998,1,-38.402,-8.129,0.000,24.548,2,0.000000,0.000000,0.000000,0.000,0.000000,0,0,0,0,0
15,0.394816,0,0.004,-0.043,-0.004,6.660,1.851,179.778,0.112,-0.112,0.000,-2.188,-14.938,-29.188,1.148,0.297,9.883,0.003,-0.058,-0.016,-0.998,1,-38.402,-8.129,0.000,24.548,2,0.000000,0.000000,0.000000,0.000,0.000000,0,0,0,0,0
16,0.410781,0,0.004,-0.082,0.035,6.660,1.851,179.778,0.336,-0.112,-0.112,-5.062,-17.000,-29.312,1.148,0.297,9.883,0.003,-0.058,-0.016,-0.998,1,-38.402,-8.129,0.000,24.548,2,0.000000,0.000000,0.000000,0.000,0.000000,0,0,0,0,0
17,0.436678,0,0.004,-0.043,-0.043,6.660,1.858,179.779,0.448,0.224,-0.112,-3.375,-14.438,-29.562,1.148,0.297,9.883,0.003,-0.058,-0.016,-0.998,1,-35.246,-7.788,0.000,24.548,2,0.000000,0.000000,0.000000,0.000,0.000000,0,0,0,0,0
18,0.452781,0,-0.035,0.004,-0.043,6.660,1.865,179.779,0.560,0.112,-0.112,-4.500,-18.062,-28.750,1.148,0.289,9.883,0.003,-0.058,-0.016,-0.998,1,-38.402,-8.129,0.000,24.548,2,0.000000,0.000000,0.000000,0.000,0.000000,0,0,0,0,0
19,0.476677,0,0.012,0.004,0.035,6.653,1.865,179.786,0.448,0.112,-0.336,-1.938,-16.812,-28.812,1.141,0.289,9.883,0.003,-0.058,-0.016,-0.998,1,-35.246,-7.788,0.000,24.548,2,0.000000,0.000000,0.000000,0.000,0.000000,0,0,0,0,0
20,0.501677,0,0.012,-0.004,0.035,6.653,1.879,179.787,0.783,0.112,-0.224,-3.375,-13.938,-30.500,1.141,0.297,9.883,0.003,-0.058,-0.016,-0.998,1,-42.611,-8.563,0.000,24.548,2,0.000000,0.000000,0.000000,0.000,0.000000,0,0,0,0,0
21,0.536678,0,0.012,-0.004,-0.078,6.646,1.893,179.788,0.895,0.000,0.336,-3.750,-14.250,-30.438,1.141,0.305,9.883,0.003,-0.058,-0.017,-0.998,1,-35.246,-7.788,0.000,24.548,2,0.000000,0.000000,0.000000,0.000,0.000000,0,0,0,0,0
22,0.554677,0,0.043,-0.012,0.113,6.646,1.914,179.775,0.560,0.000,0.336,-4.375,-15.250,-31.000,1.141,0.305,9.883,0.003,-0.058,-0.017,-0.998,1,-35.246,-7.788,0.000,24.548,2,0.000000,0.000000,0.000000,0.000,0.000000,0,0,0,0,0
23,0.570781,0,0.004,-0.012,0.027,6.646,1.920,179.768,0.336,0.112,0.000,-4.750,-15.688,-30.062,1.148,0.305,9.891,0.003,-0.058,-0.017,-0.998,1,-35.246,-7.788,0.000,24.548,2,0.000000,0.000000,0.000000,0.000,0.000000,0,0,0,0,0
24,0.595676,0,0.004,0.027,-0.051,6.646,1.913,179.768,-0.224,0.112,0.224,-3.500,-16.125,-30.062,1.148,0.305,9.891,0.003,-0.058,-0.017,-0.998,1,-42.611,-8.563,0.000,24.548,2,0.000000,0.000000,0.000000,0.000,0.000000,0,0,0,0,0
25,0.621671,0,-0.035,-0.012,-0.051,6.646,1.892,179.760,-0.448,-0.112,0.112,-4.062,-14.938,-29.875,1.148,0.297,9.891,0.003,-0.058,-0.017,-0.998,1,-38.402,-8.129,0.000,24.548,2,0.000000,0.000000,0.000000,0.000,0.000000,0,0,0,0,0
26,0.635677,0,-0.035,-0.004,-0.078,6.646,1.878,179.759,-0.448,-0.112,-0.112,-2.812,-15.375,-29.500,1.148,0.297,9.883,0.003,-0.058,-0.016,-0.998,1,-38.402,-8.129,0.000,24.548,2,0.000000,0.000000,0.000000,0.000,0.000000,0,0,0,0,0
27,0.651781,0,-0.035,-0.004,-0.043,6.646,1.864,179.758,-0.112,-0.112,0.000,-5.000,-19.812,-28.750,1.148,0.297,9.883,0.003,-0.058,-0.016,-0.998,1,-38.402,-8.129,0.000,24.548,2,0.000000,0.000000,0.000000,0.000,0.000000,0,0,0,0,0
28,0.675683,0,0.004,0.074,0.113,6.646,1.857,179.757,-0.112,0.112,0.000,-2.125,-15.250,-29.188,1.148,0.297,9.883,0.003,-0.058,-0.016,-0.998,1,-32.090,-7.431,0.000,24.548,2,0.000000,0.000000,0.000000,0.000,0.000000,0,0,0,0,0
29,0.695677,0,0.004,0.074,0.113,6.646,1.864,179.758,0.336,0.112,-0.560,-3.750,-14.438,-29.188,1.148,0.305,9.883,0.003,-0.058,-0.016,-0.998,1,-35.246,-7.788,0.000,24.548,2,0.000000,0.000000,0.000000,0.000,0.000000,0,0,0,0,0
30,0.715678,0,-0.035,0.059,-0.051,6.646,1.871,179.772,0.448,0.112,-0.560,-2.125,-17.625,-29.438,1.148,0.305,9.883,0.003,-0.058,-0.016,-0.998,1,-32.090,-7.431,0.000,24.548,2,0.000000,0.000000,0.000000,0.000,0.000000,0,0,0,0,0
31,0.727781,0,-0.035,0.020,-0.012,6.639,1.879,179.780,0.336,-0.112,-0.448,-4.750,-16.062,-29.562,1.148,0.312,9.891,0.003,-0.058,-0.016,-0.998,1,-35.246,-7.788,0.000,24.548,2,0.000000,0.000000,0.000000,0.000,0.000000,0,0,0,0,0
32,0.755676,0,-0.027,-0.027,-0.012,6.639,1.879,179.787,0.112,-0.112,-0.671,-4.500,-18.500,-27.875,1.141,0.312,9.891,0.003,-0.058,-0.016,-0.998,1,-32.090,-7.431,0.000,24.548,2,0.000000,0.000000,0.000000,0.000,0.000000,0,0,0,0,0
33,0.767781,0,0.012,-0.020,-0.012,6.638,1.866,179.800,-1.119,-0.224,-0.224,-2.312,-16.438,-28.938,1.141,0.312,9.891,0.003,-0.058,-0.016,-0.998,1,-38.402,-8.129,0.000,24.548,2,0.000000,0.000000,0.000000,0.000,0.000000,0,0,0,0,0
34,0.795676,0,0.051,-0.098,-0.051,6.638,1.859,179.800,-1.231,-0.112,-0.336,-2.688,-16.312,-29.688,1.141,0.312,9.891,0.003,-0.058,-0.016,-0.998,1,-38.402,-8.129,0.000,24.548,2,0.000000,0.000000,0.000000,0.000,0.000000,0,0,0,0,0
35,0.815675,0,0.051,-0.090,-0.051,6.638,1.782,179.809,-2.798,0.000,0.000,-4.500,-14.938,-29.562,1.141,0.297,9.891,0.003,-0.058,-0.016,-0.998,1,-38.402,-8.129,0.000,24.548,2,0.000000,0.000000,0.000000,0.000,0.000000,0,0,0,0,0
36,0.835677,0,0.082,-0.066,-0.012,6.638,1.747,179.807,-2.798,-0.112,0.112,-4.750,-15.750,-29.750,1.141,0.289,9.891,0.003,-0.058,-0.015,-0.998,1,-38.402,-8.129,0.000,24.548,2,0.000000,0.000000,0.000000,0.000,0.000000,0,0,0,0,0
37,0.880673,0,0.043,-0.004,0.027,6.638,1.691,179.804,-2.686,-0.112,0.336,-3.500,-16.062,-30.500,1.148,0.281,9.891,0.003,-0.058,-0.015,-0.998,1,-38.402,-8.129,0.000,24.548,2,0.000000,0.000000,0.000000,0.000,0.000000,0,0,0,0,0
38,0.905677,0,-0.043,-0.004,-0.051,6.638,1.613,179.785,-0.895,-0.112,0.448,-3.688,-14.562,-30.438,1.148,0.258,9.891,0.003,-0.058,-0.014,-0.998,1,-35.246,-7.788,0.000,24.548,2,0.000000,0.000000,0.000000,0.000,0.000000,0,0,0,0,0
39,0.921781,0,-0.082,-0.078,-0.051,6.638,1.612,179.771,1.231,-0.224,0.448,-3.312,-14.375,-30.125,1.156,0.258,9.891,0.003,-0.058,-0.014,-0.998,1,-38.402,-8.129,0.000,24.548,2,0.000000,0.000000,0.000000,0.000,0.000000,0,0,0,0,0
40,0.951671,0,-0.035,-0.086,-0.051,6.638,1.654,179.767,2.910,0.000,0.336,-2.812,-15.500,-29.062,1.148,0.266,9.891,0.003,-0.058,-0.015,-0.998,1,-35.246,-7.788,0.000,24.548,2,0.000000,0.000000,0.000000,0.000,0.000000,0,0,0,0,0
41,0.967781,0,-0.035,-0.059,-0.004,6.638,1.724,179.764,4.924,-0.112,0.448,-3.625,-12.375,-29.312,1.148,0.281,9.883,0.003,-0.058,-0.015,-0.998,1,-35.246,-7.788,0.000,24.548,2,0.000000,0.000000,0.000000,0.000,0.000000,0,0,0,0,0
42,0.991671,0,0.043,0.004,0.035,6.639,1.814,179.755,5.036,0.112,0.336,-5.625,-15.500,-29.375,1.148,0.289,9.883,0.003,-0.058,-0.016,-0.998,1,-38.402,-8.129,0.000,24.548,2,0.000000,0.000000,0.000000,0.000,0.000000,0,0,0,0,0
43,1.007781,0,0.043,-0.004,0.113,6.639,1.912,179.747,4.476,0.112,0.336,-4.875,-15.250,-29.438,1.148,0.305,9.891,0.003,-0.058,-0.017,-0.998,1,-38.402,-8.129,0.000,24.548,2,0.000000,0.000000,0.000000,0.000,0.000000,0,0,0,0,0
44,1.024679,0,-0.035,0.125,0.027,6.633,1.996,179.737,4.141,0.224,-0.112,-3.188,-15.625,-29.938,1.148,0.312,9.891,0.003,-0.058,-0.018,-0.998,1,-42.611,-8.563,0.000,24.548,2,0.000000,0.000000,0.000000,0.000,0.000000,0,0,0,0,0
45,1.042677,0,-0.035,0.117,-0.012,6.626,2.059,179.741,1.231,-0.112,0.112,-1.938,-16.875,-28.500,1.148,0.328,9.891,0.003,-0.058,-0.018,-0.998,1,-38.402,-8.129,0.000,24.548,2,0.000000,0.000000,0.000000,0.000,0.000000,0,0,0,0,0
46,1.064677,0,-0.074,0.148,-0.051,6.626,2.073,179.742,0.112,-0.112,-0.112,-3.812,-14.062,-29.750,1.148,0.328,9.891,0.003,-0.058,-0.018,-0.998,1,-38.402,-8.129,0.000,24.548,2,0.000000,0.000000,0.000000,0.000,0.000000,0,0,0,0,0
47,1.082677,0,-0.035,0.148,-0.051,6.626,2.052,179.747,-3.245,0.000,0.000,-3.625,-15.438,-29.125,1.148,0.336,9.891,0.003,-0.058,-0.018,-0.998,1,-38.402,-8.129,0.000,24.548,2,0.000000,0.000000,0.000000,0.000,0.000000,0,0,0,0,0
48,1.105677,0,-0.027,0.125,-0.012,6.626,2.024,179.746,-4.029,0.112,-0.224,-2.125,-17.438,-30.312,1.141,0.328,9.891,0.003,-0.058,-0.018,-0.998,1,-38.402,-8.129,0.000,24.548,2,0.000000,0.000000,0.000000,0.000,0.000000,0,0,0,0,0
49,1.122677,0,0.012,0.051,0.027,6.625,1.885,179.759,-5.819,-0.112,-0.671,-2.812,-16.250,-28.188,1.141,0.320,9.891,0.003,-0.058,-0.017,-0.998,1,-35.246,-7.788,0.000,24.548,2,0.000000,0.000000,0.000000,0.000,0.000000,0,0,0,0,0
50,1.145680,0,0.012,0.035,-0.051,6.625,1.829,179.763,-5.707,0.000,-0.895,-4.000,-15.562,-29.875,1.141,0.305,9.891,0.003,-0.058,-0.016,-0.998,1,-38.402,-8.129,0.000,24.548,2,0.000000,0.000000,0.000000,0.000,0.000000,0,0,0,0,0
51,1.164678,0,0.051,0.035,0.027,6.624,1.662,179.788,-4.476,-0.112,-1.231,-3.750,-17.062,-29.938,1.141,0.289,9.891,0.003,-0.058,-0.015,-0.998,1,-38.402,-8.129,0.000,24.548,2,0.000000,0.000000,0.000000,0.000,0.000000,0,0,0,0,0
52,1.185678,0,0.051,-0.094,-0.051,6.630,1.572,179.811,-3.805,-0.112,-0.671,-2.438,-15.750,-29.500,1.141,0.281,9.891,0.002,-0.058,-0.014,-0.998,1,-35.246,-7.788,0.000,24.548,2,0.000000,0.000000,0.000000,0.000,0.000000,0,0,0,0,0
53,1.202677,0,0.012,-0.094,0.027,6.630,1.524,179.822,-0.783,-0.112,-0.671,-4.688,-17.312,-27.875,1.141,0.273,9.891,0.002,-0.058,-0.013,-0.998,1,-38.402,-8.129,0.000,24.548,2,0.000000,0.000000,0.000000,0.000,0.000000,0,0,0,0,0
54,1.224675,0,0.012,-0.133,0.027,6.630,1.510,179.828,0.112,-0.112,-0.671,-3.125,-16.312,-29.375,1.141,0.266,9.891,0.002,-0.058,-0.013,-0.998,1,-35.246,-7.788,0.000,24.548,2,0.000000,0.000000,0.000000,0.000,0.000000,0,0,0,0,0
55,1.240781,0,0.012,-0.133,0.027,6.630,1.540,179.851,2.574,0.000,-0.671,-2.750,-16.125,-29.000,1.141,0.273,9.891,0.002,-0.058,-0.013,-0.998,1,-38.402,-8.129,0.000,24.548,2,0.000000,0.000000,0.000000,0.000,0.000000,0,0,0,0,0
56,1.274678,0,-0.035,-0.148,0.027,6.630,1.603,179.862,3.917,0.112,-0.671,-3.188,-15.625,-29.938,1.148,0.281,9.891,0.002,-0.058,-0.014,-0.998,1,-38.402,-8.129,0.000,24.548,2,0.000000,0.000000,0.000000,0.000,0.000000,0,0,0,0,0
57,1.304677,0,0.043,-0.117,-0.020,6.623,1.751,179.877,5.036,0.336,0.000,-3.562,-16.812,-28.062,1.148,0.289,9.898,0.002,-0.058,-0.015,-0.998,1,-38.402,-8.129,0.000,24.548,2,0.000000,0.000000,0.000000,0.000,0.000000,0,0,0,0,0
58,1.324677,0,0.043,-0.125,0.020,6.623,1.884,179.864,2.910,0.224,1.007,-5.625,-15.938,-28.500,1.148,0.305,9.898,0.002,-0.058,-0.016,-0.998,1,-35.246,-7.788,0.000,24.548,2,0.000000,0.000000,0.000000,0.000,0.000000,0,0,0,0,0
59,1.350671,0,0.082,-0.051,-0.020,6.617,1.939,179.846,2.350,0.112,1.119,-5.312,-14.812,-29.938,1.148,0.305,9.898,0.002,-0.058,-0.017,-0.998,1,-38.402,-8.129,0.000,24.548,2,0.000000,0.000000,0.000000,0.000,0.000000,0,0,0,0,0
60,1.365677,0,0.082,-0.012,-0.020,6.617,1.958,179.819,-0.336,0.000,1.231,-3.250,-15.438,-29.125,1.156,0.297,9.898,0.003,-0.058,-0.017,-0.998,1,-38.402,-8.129,0.000,24.548,2,0.000000,0.000000,0.000000,0.000,0.000000,0,0,0,0,0
61,1.383703,0,0.035,0.082,-0.094,6.618,1.943,179.797,-1.343,0.112,1.231,-2.125,-14.812,-29.750,1.156,0.297,9.898,0.003,-0.058,-0.017,-0.998,1,-42.611,-8.563,0.000,24.548,2,0.000000,0.000000,0.000000,0.000,0.000000,0,0,0,0,0
62,1.399781,0,0.035,0.082,-0.094,6.611,1.885,179.766,-2.910,0.224,1.343,-4.812,-15.938,-28.938,1.156,0.289,9.898,0.003,-0.058,-0.017,-0.998,1,-42.611,-8.563,0.000,24.548,2,0.000000,0.000000,0.000000,0.000,0.000000,0,0,0,0,0
63,1.415678,0,-0.012,0.129,-0.094,6.611,1.850,179.757,-3.357,-0.112,1.007,-5.750,-14.812,-29.562,1.164,0.273,9.891,0.003,-0.058,-0.016,-0.998,1,-42.611,-8.563,0.000,24.548,2,0.000000,0.000000,0.000000,0.000,0.000000,0,0,0,0,0
64,1.433675,0,-0.051,0.180,-0.086,6.618,1.778,179.738,-3.581,-0.112,0.783,-2.750,-16.188,-28.625,1.164,0.258,9.891,0.003,-0.058,-0.016,-0.998,1,-38.402,-8.129,0.000,24.548,2,0.000000,0.000000,0.000000,0.000,0.000000,0,0,0,0,0
65,1.445782,0,-0.051,0.188,0.027,6.618,1.707,179.720,-2.910,-0.112,0.448,-2.875,-15.062,-29.688,1.164,0.266,9.891,0.003,-0.058,-0.015,-0.998,1,-38.402,-8.129,0.000,24.548,2,0.000000,0.000000,0.000000,0.000,0.000000,0,0,0,0,0
66,1.464677,0,-0.090,0.152,0.105,6.625,1.679,179.719,-2.574,-0.224,0.224,-2.312,-16.375,-29.812,1.164,0.258,9.891,0.003,-0.058,-0.015,-0.998,1,-42.611,-8.563,0.000,24.548,2,0.000000,0.000000,0.000000,0.000,0.000000,0,0,0,0,0
67,1.476781,0,-0.125,0.152,0.105,6.625,1.630,179.716,-1.567,-0.112,-0.112,-4.812,-15.125,-30.000,1.164,0.258,9.891,0.003,-0.058,-0.014,-0.998,1,-38.402,-8.129,0.000,24.548,2,0.000000,0.000000,0.000000,0.000,0.000000,0,0,0,0,0
68,1.510671,0,-0.082,0.098,0.027,6.632,1.616,179.715,-1.007,0.112,-0.336,-1.812,-13.812,-30.750,1.164,0.266,9.891,0.003,-0.058,-0.014,-0.998,1,-45.767,-8.875,0.000,24.548,2,0.000000,0.000000,0.000000,0.000,0.000000,0,0,0,0,0
69,1.524677,0,-0.117,0.129,-0.051,6.624,1.610,179.736,0.895,0.112,-1.007,-4.688,-13.750,-29.438,1.148,0.281,9.898,0.003,-0.058,-0.014,-0.998,1,-45.767,-8.875,0.000,24.548,2,0.000000,0.000000,0.000000,0.000,0.000000,0,0,0,0,0
70,1.544678,0,-0.074,0.043,-0.059,6.624,1.632,179.751,1.231,0.000,-1.119,-2.375,-16.438,-29.438,1.148,0.297,9.898,0.003,-0.058,-0.014,-0.998,1,-45.767,-8.875,0.000,24.548,2,0.000000,0.000000,0.000000,0.000,0.000000,0,0,0,0,0
71,1.560781,0,-0.035,-0.043,-0.059,6.624,1.668,179.774,2.014,-0.224,-1.007,-4.062,-15.312,-29.562,1.141,0.305,9.891,0.003,-0.058,-0.015,-0.998,1,-42.611,-8.563,0.000,24.548,2,0.000000,0.000000,0.000000,0.000,0.000000,0,0,0,0,0
72,1.575677,0,0.090,-0.133,-0.051,6.631,1.711,179.791,2.126,-0.112,-0.671,-4.062,-15.312,-29.562,1.141,0.312,9.891,0.003,-0.058,-0.015,-0.998,1,-45.767,-8.875,0.000,24.548,2,0.000000,0.000000,0.000000,0.000,0.000000,0,0,0,0,0
73,1.591777,0,0.090,-0.141,-0.012,6.624,1.740,179.799,2.126,-0.112,-0.671,-4.125,-14.625,-29.688,1.141,0.320,9.891,0.003,-0.058,-0.015,-0.998,1,-42.611,-8.563,0.000,24.548,2,0.000000,0.000000,0.000000,0.000,0.000000,0,0,0,0,0
74,1.614678,0,0.164,-0.219,0.066,6.631,1.783,179.816,1.455,-0.112,-0.112,-3.188,-15.750,-29.125,1.141,0.312,9.891,0.003,-0.058,-0.016,-0.998,1,-45.767,-8.875,0.000,24.548,2,0.000000,0.000000,0.000000,0.000,0.000000,0,0,0,0,0
75,1.634682,0,0.117,-0.219,0.066,6.624,1.811,179.818,1.231,0.000,0.112,-2.500,-15.562,-28.812,1.148,0.312,9.891,0.003,-0.058,-0.016,-0.998,1,-42.611,-8.563,0.000,24.548,2,0.000000,0.000000,0.000000,0.000,0.000000,0,0,0,0,0
76,1.654677,0,0.074,-0.051,-0.059,6.631,1.825,179.811,0.112,-0.112,0.560,-2.375,-13.312,-29.688,1.148,0.312,9.891,0.003,-0.058,-0.016,-0.998,1,-42.611,-8.563,0.000,24.548,2,0.000000,0.000000,0.000000,0.000,0.000000,0,0,0,0,0
77,1.680688,0,-0.004,-0.051,-0.094,6.631,1.817,179.797,-0.783,0.000,0.783,-2.500,-15.562,-28.812,1.156,0.297,9.891,0.003,-0.058,-0.016,-0.998,1,-42.611,-8.563,0.000,24.548,2,0.000000,0.000000,0.000000,0.000,0.000000,0,0,0,0,0
78,1.694684,0,-0.043,-0.027,-0.012,6.631,1.788,179.781,-1.455,0.112,1.007,-4.000,-16.000,-29.000,1.156,0.297,9.891,0.003,-0.058,-0.016,-0.998,1,-42.611,-8.563,0.000,24.548,2,0.000000,0.000000,0.000000,0.000,0.000000,0,0,0,0,0
79,1.721671,0,-0.051,0.012,-0.012,6.631,1.751,179.758,-2.126,0.000,1.231,-3.938,-13.250,-29.250,1.164,0.273,9.891,0.003,-0.058,-0.015,-0.998,1,-42.611,-8.563,0.000,24.548,2,0.000000,0.000000,0.000000,0.000,0.000000,0,0,0,0,0
80,1.737781,0,-0.012,0.145,0.027,6.632,1.708,179.728,-1.790,-0.112,0.895,-5.000,-17.000,-29.562,1.164,0.266,9.891,0.003,-0.058,-0.015,-0.998,1,-42.611,-8.563,0.000,24.548,2,0.000000,0.000000,0.000000,0.000,0.000000,0,0,0,0,0
81,1.773677,0,-0.043,0.145,0.027,6.632,1.650,179.703,-0.895,0.112,0.448,-5.000,-17.312,-29.500,1.156,0.266,9.891,0.003,-0.058,-0.015,-0.998,1,-45.767,-8.875,0.000,24.548,2,0.000000,0.000000,0.000000,0.000,0.000000,0,0,0,0,0
82,1.800670,0,-0.082,0.180,0.027,6.632,1.636,179.695,0.224,-0.112,-0.112,-4.375,-15.438,-30.312,1.156,0.266,9.891,0.003,-0.058,-0.014,-0.998,1,-42.611,-8.563,0.000,24.548,2,0.000000,0.000000,0.000000,0.000,0.000000,0,0,0,0,0
83,1.814677,0,-0.043,0.121,-0.051,6.632,1.643,179.703,1.343,-0.224,-0.671,-4.562,-14.688,-29.250,1.156,0.281,9.891,0.003,-0.058,-0.014,-0.998,1,-42.611,-8.563,0.000,24.548,2,0.000000,0.000000,0.000000,0.000,0.000000,0,0,0,0,0
84,1.834677,0,-0.035,0.121,-0.086,6.639,1.672,179.719,1.902,0.000,-0.895,-4.500,-15.312,-29.125,1.148,0.305,9.891,0.003,-0.058,-0.015,-0.998,1,-42.611,-8.563,0.000,24.548,2,0.000000,0.000000,0.000000,0.000,0.000000,0,0,0,0,0
85,1.853677,0,0.004,0.012,0.027,6.639,1.708,179.742,1.902,-0.112,-1.231,-6.062,-14.312,-30.438,1.148,0.305,9.891,0.003,-0.058,-0.015,-0.998,1,-42.611,-8.563,0.000,24.548,2,0.000000,0.000000,0.000000,0.000,0.000000,0,0,0,0,0
86,1.865782,0,0.004,-0.027,0.066,6.638,1.759,179.766,2.014,-0.112,-1.343,-3.438,-14.312,-28.688,1.148,0.320,9.891,0.003,-0.058,-0.015,-0.998,1,-42.611,-8.563,0.000,24.548,2,0.000000,0.000000,0.000000,0.000,0.000000,0,0,0,0,0
87,1.893677,0,0.043,-0.113,0.027,6.638,1.802,179.789,1.790,-0.224,-1.119,-4.812,-16.375,-28.125,1.148,0.328,9.891,0.003,-0.058,-0.016,-0.998,1,-38.402,-8.129,0.000,24.548,2,0.000000,0.000000,0.000000,0.000,0.000000,0,0,0,0,0
88,1.905782,0,0.043,-0.121,0.027,6.645,1.832,179.812,1.231,-0.112,-0.895,-4.188,-14.875,-28.500,1.148,0.336,9.891,0.003,-0.058,-0.016,-0.998,1,-38.402,-8.129,0.000,24.548,2,0.000000,0.000000,0.000000,0.000,0.000000,0,0,0,0,0
89,1.933677,0,0.043,-0.195,-0.012,6.638,1.860,179.821,0.671,0.000,-0.224,-4.750,-15.750,-29.875,1.148,0.336,9.891,0.003,-0.058,-0.016,-0.998,1,-42.611,-8.563,0.000,24.548,2,0.000000,0.000000,0.000000,0.000,0.000000,0,0,0,0,0
90,1.973677,0,0.074,-0.141,-0.012,6.638,1.861,179.828,-0.448,0.000,0.000,-5.688,-15.750,-27.875,1.148,0.328,9.891,0.002,-0.058,-0.016,-0.998,1,-38.402,-8.129,0.000,24.548,2,0.000000,0.000000,0.000000,0.000,0.000000,0,0,0,0,0
91,1.997672,0,0.074,-0.090,-0.012,6.638,1.802,179.789,-1.455,0.224,1.007,-3.562,-12.875,-29.812,1.156,0.305,9.891,0.003,-0.058,-0.016,-0.998,1,-38.402,-8.129,0.000,24.548,2,0.000000,0.000000,0.000000,0.000,0.000000,0,0,0,0,0
92,2.013677,0,0.027,0.004,-0.012,6.639,1.788,179.781,-1.231,0.224,1.119,-5.812,-14.188,-29.750,1.156,0.305,9.891,0.003,-0.058,-0.016,-0.998,1,-42.611,-8.563,0.000,24.548,2,0.000000,0.000000,0.000000,0.000,0.000000,0,0,0,0,0
93,2.029781,0,0.027,0.004,-0.051,6.631,1.759,179.759,-1.231,0.224,1.231,-4.062,-14.938,-29.688,1.164,0.289,9.891,0.003,-0.058,-0.015,-0.998,1,-38.402,-8.129,0.000,24.548,2,0.000000,0.000000,0.000000,0.000,0.000000,0,0,0,0,0
94,2.063677,0,-0.051,0.137,-0.051,6.639,1.729,179.736,-0.671,0.000,1.007,-2.750,-19.125,-29.312,1.164,0.281,9.891,0.003,-0.058,-0.015,-0.998,1,-42.611,-8.563,0.000,24.548,2,0.000000,0.000000,0.000000,0.000,0.000000,0,0,0,0,0
95,2.099693,0,-0.090,0.129,0.027,6.639,1.707,179.714,-0.224,0.112,0.448,-3.250,-12.188,-30.750,1.164,0.273,9.891,0.003,-0.058,-0.015,-0.998,1,-38.402,-8.129,0.000,24.548,2,0.000000,0.000000,0.000000,0.000,0.000000,0,0,0,0,0
96,2.139677,0,-0.043,0.113,-0.012,6.639,1.706,179.707,0.783,-0.112,0.112,-5.938,-13.312,-29.562,1.164,0.281,9.891,0.003,-0.058,-0.015,-0.998,1,-35.246,-7.788,0.000,24.548,2,0.000000,0.000000,0.000000,0.000,0.000000,0,0,0,0,0
97,2.153677,0,-0.043,0.074,-0.012,6.646,1.763,179.717,1.119,0.112,-0.671,-5.812,-17.375,-28.688,1.156,0.312,9.891,0.003,-0.058,-0.016,-0.998,1,-38.402,-8.129,0.000,24.548,2,0.000000,0.000000,0.000000,0.000,0.000000,0,0,0,0,0
98,2.183677,0,-0.004,0.020,-0.012,6.646,1.778,179.725,1.119,-0.112,-0.560,-3.312,-15.188,-28.938,1.148,0.320,9.891,0.003,-0.058,-0.016,-0.998,1,-35.246,-7.788,0.000,24.548,2,0.000000,0.000000,0.000000,0.000,0.000000,0,0,0,0,0
99,2.203677,0,0.043,-0.074,-0.012,6.646,1.814,179.741,0.783,0.000,-0.448,-4.312,-16.188,-29.438,1.148,0.328,9.891,0.003,-0.058,-0.016,-0.998,1,-38.402,-8.129,0.000,24.548,2,0.000000,0.000000,0.000000,0.000,0.000000,0,0,0,0,0
100,2.223677,0,0.082,-0.074,-0.012,6.646,1.835,179.749,0.560,-0.112,-0.336,-2.438,-18.938,-28.562,1.148,0.328,9.891,0.003,-0.058,-0.016,-0.998,1,-35.246,-7.788,0.000,24.548,2,0.000000,0.000000,0.000000,0.000,0.000000,0,0,0,0,0
101,2.243677,0,0.004,-0.113,0.020,6.646,1.836,179.756,-0.224,-0.112,-0.224,-2.625,-14.188,-29.938,1.148,0.328,9.891,0.003,-0.058,-0.016,-0.998,1,-38.402,-8.129,0.000,24.548,2,0.000000,0.000000,0.000000,0.000,0.000000,0,0,0,0,0
102,2.259781,0,0.043,-0.074,-0.020,6.646,1.828,179.756,-0.895,-0.112,-0.112,-3.625,-15.688,-29.250,1.148,0.328,9.898,0.003,-0.058,-0.016,-0.998,1,-38.402,-8.129,0.000,24.548,2,0.000000,0.000000,0.000000,0.000,0.000000,0,0,0,0,0
103,2.283677,0,-0.004,-0.059,0.020,6.646,1.807,179.755,-1.231,-0.112,0.336,-2.312,-16.250,-30.312,1.148,0.312,9.898,0.003,-0.058,-0.016,-0.998,1,-38.402,-8.129,0.000,24.548,2,0.000000,0.000000,0.000000,0.000,0.000000,0,0,0,0,0
104,2.309672,0,-0.004,-0.059,0.020,6.646,1.779,179.746,-1.679,0.112,0.448,-3.750,-14.500,-29.438,1.156,0.305,9.898,0.003,-0.058,-0.016,-0.998,1,-38.402,-8.129,0.000,24.548,2,0.000000,0.000000,0.000000,0.000,0.000000,0,0,0,0,0
105,2.325781,0,-0.004,0.043,-0.020,6.646,1.736,179.736,-1.902,0.000,0.224,-4.188,-14.438,-29.438,1.156,0.297,9.898,0.003,-0.058,-0.015,-0.998,1,-42.611,-8.563,0.000,24.548,2,0.000000,0.000000,0.000000,0.000,0.000000,0,0,0,0,0
106,2.337781,0,-0.004,0.004,0.020,6.646,1.701,179.734,-1.902,-0.112,0.560,-6.625,-17.438,-28.250,1.156,0.289,9.898,0.003,-0.058,-0.015,-0.998,1,-42.611,-8.563,0.000,24.548,2,0.000000,0.000000,0.000000,0.000,0.000000,0,0,0,0,0
107,2.363677,0,-0.043,0.090,-0.020,6.646,1.665,179.725,-1.455,0.000,0.448,-3.250,-15.000,-29.812,1.156,0.281,9.898,0.003,-0.058,-0.015,-0.998,1,-42.611,-8.563,0.000,24.548,2,0.000000,0.000000,0.000000,0.000,0.000000,0,0,0,0,0
108,2.393677,0,-0.004,0.059,-0.020,6.653,1.637,179.717,-0.895,-0.112,0.112,-5.938,-16.812,-28.438,1.156,0.281,9.898,0.003,-0.058,-0.014,-0.998,1,-42.611,-8.563,0.000,24.548,2,0.000000,0.000000,0.000000,0.000,0.000000,0,0,0,0,0
109,2.429670,0,-0.004,0.090,0.020,6.646,1.623,179.723,0.000,0.112,-0.224,-4.625,-16.250,-30.625,1.156,0.281,9.898,0.003,-0.058,-0.014,-0.998,1,-35.246,-7.788,0.000,24.548,2,0.000000,0.000000,0.000000,0.000,0.000000,0,0,0,0,0
110,2.443677,0,-0.004,0.004,-0.020,6.653,1.631,179.730,1.119,-0.112,-0.336,-3.875,-17.062,-28.500,1.156,0.281,9.898,0.003,-0.058,-0.014,-0.998,1,-35.246,-7.788,0.000,24.548,2,0.000000,0.000000,0.000000,0.000,0.000000,0,0,0,0,0
111,2.463677,0,-0.004,-0.043,0.020,6.652,1.652,179.739,1.455,-0.112,-0.336,-3.500,-12.812,-30.250,1.156,0.297,9.898,0.003,-0.058,-0.015,-0.998,1,-35.246,-7.788,0.000,24.548,2,0.000000,0.000000,0.000000,0.000,0.000000,0,0,0,0,0
112,2.482678,0,-0.004,-0.051,0.059,6.653,1.687,179.741,1.455,0.000,-0.560,-4.562,-16.812,-30.938,1.156,0.297,9.898,0.003,-0.058,-0.015,-0.998,1,-35.246,-7.788,0.000,24.548,2,0.000000,0.000000,0.000000,0.000,0.000000,0,0,0,0,0
113,2.503678,0,-0.004,-0.090,0.020,6.653,1.716,179.749,1.567,0.112,-0.336,-5.625,-16.250,-28.562,1.156,0.312,9.898,0.003,-0.058,-0.015,-0.998,1,-35.246,-7.788,0.000,24.548,2,0.000000,0.000000,0.000000,0.000,0.000000,0,0,0,0,0
114,2.522676,0,-0.004,-0.090,-0.059,6.653,1.751,179.751,1.343,0.000,0.224,-5.312,-15.000,-28.812,1.156,0.312,9.898,0.003,-0.058,-0.015,-0.998,1,-38.402,-8.129,0.000,24.548,2,0.000000,0.000000,0.000000,0.000,0.000000,0,0,0,0,0
115,2.534781,0,-0.004,-0.098,-0.059,6.653,1.779,179.753,1.343,0.000,0.336,-4.500,-15.000,-29.312,1.156,0.312,9.898,0.003,-0.058,-0.016,-0.998,1,-38.402,-8.129,0.000,24.548,2,0.000000,0.000000,0.000000,0.000,0.000000,0,0,0,0,0
116,2.562677,0,-0.004,-0.051,-0.020,6.653,1.800,179.747,0.783,0.000,0.448,-2.125,-15.750,-28.125,1.156,0.312,9.898,0.003,-0.058,-0.016,-0.998,1,-35.246,-7.788,0.000,24.548,2,0.000000,0.000000,0.000000,0.000,0.000000,0,0,0,0,0
117,2.602677,0,-0.004,0.027,-0.020,6.653,1.799,179.733,-0.112,0.112,0.560,-4.250,-17.250,-28.875,1.156,0.305,9.898,0.003,-0.058,-0.016,-0.998,1,-38.402,-8.129,0.000,24.548,2,0.000000,0.000000,0.000000,0.000,0.000000,0,0,0,0,0
118,2.642679,0,-0.004,0.082,0.020,6.654,1.770,179.710,-1.343,0.000,0.560,-5.875,-13.688,-29.062,1.156,0.305,9.898,0.003,-0.058,-0.016,-0.998,1,-38.402,-8.129,0.000,24.548,2,0.000000,0.000000,0.000000,0.000,0.000000,0,0,0,0,0
119,2.683678,0,-0.082,0.121,0.020,6.654,1.705,179.686,-1.567,0.000,0.224,-4.438,-16.062,-28.312,1.156,0.289,9.898,0.004,-0.058,-0.015,-0.998,1,-35.246,-7.788,0.000,24.548,2,0.000000,0.000000,0.000000,0.000,0.000000,0,0,0,0,0
120,2.703676,0,-0.082,0.082,0.020,6.653,1.649,179.682,-0.224,0.000,-0.336,-4.250,-17.438,-27.625,1.156,0.289,9.898,0.004,-0.058,-0.015,-0.998,1,-38.402,-8.129,0.000,24.548,2,0.000000,0.000000,0.000000,0.000,0.000000,0,0,0,0,0
121,2.719781,0,-0.043,0.035,0.020,6.653,1.649,179.689,0.224,0.000,-0.336,-3.438,-16.062,-30.812,1.156,0.297,9.898,0.004,-0.058,-0.015,-0.998,1,-38.402,-8.129,0.000,24.548,2,0.000000,0.000000,0.000000,0.000,0.000000,0,0,0,0,0
122,2.731782,0,-0.004,0.035,-0.059,6.653,1.657,179.697,1.007,-0.112,-0.448,-4.812,-15.188,-30.125,1.156,0.297,9.898,0.003,-0.058,-0.015,-0.998,1,-38.402,-8.129,0.000,24.548,2,0.000000,0.000000,0.000000,0.000,0.000000,0,0,0,0,0
123,2.759672,0,0.004,-0.012,-0.020,6.653,1.671,179.698,0.783,0.000,-0.448,-2.625,-14.812,-28.312,1.148,0.297,9.898,0.003,-0.058,-0.015,-0.998,1,-38.402,-8.129,0.000,24.548,2,0.000000,0.000000,0.000000,0.000,0.000000,0,0,0,0,0
124,2.771782,0,0.004,-0.059,0.020,6.653,1.693,179.713,1.455,-0.224,-0.560,-4.312,-16.688,-28.625,1.148,0.312,9.898,0.003,-0.058,-0.015,-0.998,1,-38.402,-8.129,0.000,24.548,2,0.000000,0.000000,0.000000,0.000,0.000000,0,0,0,0,0
125,2.792704,0,0.082,-0.027,0.020,6.660,1.721,179.722,1.343,0.000,-0.448,-2.500,-15.562,-29.312,1.148,0.312,9.898,0.003,-0.058,-0.015,-0.998,1,-35.246,-7.788,0.000,24.548,2,0.000000,0.000000,0.000000,0.000,0.000000,0,0,0,0,0
126,2.810677,0,0.035,-0.027,-0.020,6.660,1.750,179.737,0.783,0.112,-0.336,-5.000,-17.312,-29.625,1.156,0.320,9.898,0.003,-0.058,-0.015,-0.998,1,-38.402,-8.129,0.000,24.548,2,0.000000,0.000000,0.000000,0.000,0.000000,0,0,0,0,0
127,2.832677,0,-0.004,-0.066,0.020,6.660,1.757,179.738,0.671,0.112,-0.336,-4.250,-16.938,-28.938,1.156,0.320,9.898,0.003,-0.058,-0.015,-0.998,1,-38.402,-8.129,0.000,24.548,2,0.000000,0.000000,0.000000,0.000,0.000000,0,0,0,0,0
128,2.844781,0,-0.004,-0.059,0.020,6.653,1.779,179.746,0.448,0.112,0.224,-6.250,-13.812,-29.938,1.156,0.312,9.898,0.003,-0.058,-0.016,-0.998,1,-32.090,-7.431,0.000,24.548,2,0.000000,0.000000,0.000000,0.000,0.000000,0,0,0,0,0
129,2.878671,0,-0.004,-0.059,-0.020,6.653,1.786,179.746,-0.112,0.000,-0.112,-4.812,-15.875,-29.125,1.156,0.312,9.898,0.003,-0.058,-0.016,-0.998,1,-35.246,-7.788,0.000,24.548,2,0.000000,0.000000,0.000000,0.000,0.000000,0,0,0,0,0
130,2.894781,0,-0.004,-0.059,-0.020,6.653,1.771,179.739,-0.895,0.112,0.560,-1.750,-17.625,-29.750,1.156,0.312,9.898,0.003,-0.058,-0.016,-0.998,1,-38.402,-8.129,0.000,24.548,2,0.000000,0.000000,0.000000,0.000,0.000000,0,0,0,0,0
131,2.912677,0,-0.004,-0.051,0.020,6.653,1.742,179.723,-1.119,0.112,0.336,-4.375,-12.438,-30.312,1.156,0.305,9.898,0.003,-0.058,-0.015,-0.998,1,-38.402,-8.129,0.000,24.548,2,0.000000,0.000000,0.000000,0.000,0.000000,0,0,0,0,0
132,2.933677,0,-0.004,-0.004,0.020,6.646,1.735,179.722,-0.895,0.112,0.560,-4.812,-15.562,-29.188,1.156,0.297,9.898,0.003,-0.058,-0.015,-0.998,1,-35.246,-7.788,0.000,24.548,2,0.000000,0.000000,0.000000,0.000,0.000000,0,0,0,0,0
133,2.958670,0,0.035,0.035,0.020,6.653,1.714,179.714,-0.895,0.000,0.336,-1.250,-15.625,-29.438,1.156,0.297,9.898,0.003,-0.058,-0.015,-0.998,1,-38.402,-8.129,0.000,24.548,2,0.000000,0.000000,0.000000,0.000,0.000000,0,0,0,0,0
134,2.974781,0,-0.004,0.043,0.020,6.646,1.699,179.706,-0.336,0.112,0.448,-2.875,-15.812,-29.312,1.156,0.289,9.898,0.003,-0.058,-0.015,-0.998,1,-38.402,-8.129,0.000,24.548,2,0.000000,0.000000,0.000000,0.000,0.000000,0,0,0,0,0
135,2.992677,0,-0.043,0.121,-0.059,6.646,1.692,179.692,0.224,0.000,0.112,-3.875,-16.562,-29.500,1.156,0.289,9.898,0.004,-0.058,-0.015,-0.998,1,-38.402,-8.129,0.000,24.548,2,0.000000,0.000000,0.000000,0.000,0.000000,0,0,0,0,0
136,3.008781,0,-0.004,0.121,-0.020,6.646,1.692,179.692,0.224,0.000,-0.112,-2.812,-15.750,-29.688,1.156,0.289,9.898,0.004,-0.058,-0.015,-0.998,1,-42.611,-8.563,0.000,24.548,2,0.000000,0.000000,0.000000,0.000,0.000000,0,0,0,0,0
137,3.032677,0,-0.043,0.027,0.020,6.646,1.706,179.700,0.783,0.112,-0.336,-4.125,-14.312,-29.938,1.156,0.297,9.898,0.003,-0.058,-0.015,-0.998,1,-42.611,-8.563,0.000,24.548,2,0.000000,0.000000,0.000000,0.000,0.000000,0,0,0,0,0
138,3.052677,0,-0.043,0.027,-0.020,6.647,1.727,179.701,1.119,-0.112,-0.448,-5.750,-14.500,-29.812,1.156,0.305,9.898,0.003,-0.058,-0.015,-0.998,1,-35.246,-7.788,0.000,24.548,2,0.000000,0.000000,0.000000,0.000,0.000000,0,0,0,0,0
139,3.072677,0,-0.035,-0.020,0.020,6.647,1.749,179.709,1.119,-0.112,-0.336,-2.375,-13.438,-29.500,1.156,0.312,9.898,0.003,-0.058,-0.015,-0.998,1,-38.402,-8.129,0.000,24.548,2,0.000000,0.000000,0.000000,0.000,0.000000,0,0,0,0,0
140,3.092677,0,0.004,-0.027,0.020,6.646,1.770,179.717,0.895,0.112,-0.336,-3.312,-14.875,-29.062,1.148,0.320,9.898,0.003,-0.058,-0.016,-0.998,1,-32.090,-7.431,0.000,24.548,2,0.000000,0.000000,0.000000,0.000,0.000000,0,0,0,0,0
141,3.111677,0,0.043,-0.035,0.020,6.646,1.785,179.725,0.560,0.000,-0.224,-3.562,-13.000,-29.500,1.148,0.320,9.898,0.003,-0.058,-0.016,-0.998,1,-38.402,-8.129,0.000,24.548,2,0.000000,0.000000,0.000000,0.000,0.000000,0,0,0,0,0
142,3.123782,0,0.043,-0.035,0.020,6.646,1.799,179.733,0.112,0.112,0.112,-3.125,-13.938,-29.312,1.148,0.328,9.898,0.003,-0.058,-0.016,-0.998,1,-38.402,-8.129,0.000,24.548,2,0.000000,0.000000,0.000000,0.000,0.000000,0,0,0,0,0
143,3.151677,0,0.043,-0.027,-0.027,6.646,1.799,179.733,-0.224,0.000,-0.224,-3.000,-17.250,-29.375,1.148,0.328,9.898,0.003,-0.058,-0.016,-0.998,1,-35.246,-7.788,0.000,24.548,2,0.000000,0.000000,0.000000,0.000,0.000000,0,0,0,0,0
144,3.163783,0,0.043,-0.059,-0.027,6.646,1.778,179.732,-1.119,0.000,0.000,-4.812,-15.562,-29.250,1.148,0.312,9.906,0.003,-0.058,-0.016,-0.998,1,-38.402,-8.129,0.000,24.548,2,0.000000,0.000000,0.000000,0.000,0.000000,0,0,0,0,0
145,3.197782,0,-0.004,-0.012,-0.020,6.646,1.771,179.731,-1.343,-0.224,0.224,-2.750,-16.312,-29.688,1.148,0.312,9.898,0.003,-0.058,-0.016,-0.998,1,-38.402,-8.129,0.000,24.548,2,0.000000,0.000000,0.000000,0.000,0.000000,0,0,0,0,0
146,3.237688,0,-0.004,0.035,0.020,6.646,1.714,179.721,-1.455,0.112,0.112,-5.625,-15.500,-29.625,1.156,0.297,9.898,0.003,-0.058,-0.015,-0.998,1,-35.246,-7.788,0.000,24.548,2,0.000000,0.000000,0.000000,0.000,0.000000,0,0,0,0,0
147,3.252677,0,-0.004,-0.004,0.020,6.646,1.672,179.719,-0.671,0.000,0.224,-2.125,-15.375,-28.625,1.156,0.289,9.906,0.003,-0.058,-0.015,-0.998,1,-38.402,-8.129,0.000,24.548,2,0.000000,0.000000,0.000000,0.000,0.000000,0,0,0,0,0
148,3.277671,0,-0.004,0.004,0.012,6.653,1.658,179.711,-0.560,-0.112,0.224,-3.312,-15.188,-29.062,1.156,0.289,9.906,0.003,-0.058,-0.015,-0.998,1,-35.246,-7.788,0.000,24.548,2,0.000000,0.000000,0.000000,0.000,0.000000,0,0,0,0,0
149,3.302678,0,-0.004,0.004,-0.027,6.646,1.658,179.711,-0.112,0.112,0.000,-4.875,-18.375,-28.625,1.156,0.289,9.906,0.003,-0.058,-0.015,-0.998,1,-32.090,-7.431,0.000,24.548,2,0.000000,0.000000,0.000000,0.000,0.000000,0,0,0,0,0
150,3.321687,0,0.035,0.004,-0.027,6.646,1.664,179.704,0.895,0.000,0.224,-3.938,-15.812,-30.062,1.156,0.297,9.906,0.003,-0.058,-0.015,-0.998,1,-38.402,-8.129,0.000,24.548,2,0.000000,0.000000,0.000000,0.000,0.000000,0,0,0,0,0
151,3.357690,0,-0.004,-0.012,-0.027,6.653,1.692,179.706,1.119,0.000,-0.112,-2.688,-19.938,-28.062,1.156,0.297,9.906,0.003,-0.058,-0.015,-0.998,1,-35.246,-7.788,0.000,24.548,2,0.000000,0.000000,0.000000,0.000,0.000000,0,0,0,0,0
152,3.381676,0,-0.043,0.027,-0.027,6.654,1.735,179.708,1.455,0.000,0.224,-4.375,-15.812,-30.062,1.156,0.305,9.906,0.003,-0.058,-0.015,-0.998,1,-35.246,-7.788,0.000,24.548,2,0.000000,0.000000,0.000000,0.000,0.000000,0,0,0,0,0
153,3.393781,0,-0.004,0.020,-0.027,6.654,1.777,179.711,1.231,0.112,-0.224,-2.938,-17.688,-28.938,1.156,0.312,9.906,0.003,-0.058,-0.016,-0.998,1,-38.402,-8.129,0.000,24.548,2,0.000000,0.000000,0.000000,0.000,0.000000,0,0,0,0,0
154,3.421677,0,-0.004,0.012,0.012,6.654,1.791,179.712,1.119,0.000,-0.112,-6.500,-14.438,-29.750,1.156,0.312,9.898,0.003,-0.058,-0.016,-0.998,1,-38.402,-8.129,0.000,24.548,2,0.000000,0.000000,0.000000,0.000,0.000000,0,0,0,0,0
155,3.437781,0,-0.004,0.012,0.012,6.647,1.812,179.706,0.448,0.112,0.112,-2.562,-14.938,-29.125,1.156,0.320,9.906,0.003,-0.058,-0.016,-0.998,1,-35.246,-7.788,0.000,24.548,2,0.000000,0.000000,0.000000,0.000,0.000000,0,0,0,0,0
156,3.460677,0,-0.004,0.012,-0.027,6.647,1.812,179.706,-0.224,0.000,-0.112,-4.562,-14.812,-28.625,1.156,0.320,9.906,0.003,-0.058,-0.016,-0.998,1,-35.246,-7.788,0.000,24.548,2,0.000000,0.000000,0.000000,0.000,0.000000,0,0,0,0,0
157,3.476781,0,-0.004,0.020,-0.027,6.647,1.805,179.705,-0.783,0.000,0.224,-2.562,-14.938,-29.125,1.156,0.312,9.906,0.003,-0.058,-0.016,-0.998,1,-35.246,-7.788,0.000,24.548,2,0.000000,0.000000,0.000000,0.000,0.000000,0,0,0,0,0
158,3.490677,0,0.035,-0.020,-0.027,6.647,1.783,179.704,-1.119,0.000,0.224,-3.938,-15.438,-30.938,1.156,0.312,9.906,0.003,-0.058,-0.016,-0.998,1,-38.402,-8.129,0.000,24.548,2,0.000000,0.000000,0.000000,0.000,0.000000,0,0,0,0,0
159,3.506781,0,-0.004,-0.020,-0.020,6.647,1.776,179.704,-0.783,-0.112,0.112,-3.062,-13.812,-30.188,1.156,0.312,9.906,0.003,-0.058,-0.016,-0.998,1,-35.246,-7.788,0.000,24.548,2,0.000000,0.000000,0.000000,0.000,0.000000,0,0,0,0,0
160,3.540708,0,-0.004,0.027,-0.020,6.647,1.755,179.703,-1.119,0.000,0.112,-1.938,-16.312,-30.062,1.156,0.305,9.898,0.003,-0.058,-0.015,-0.998,1,-32.090,-7.431,0.000,24.548,2,0.000000,0.000000,0.000000,0.000,0.000000,0,0,0,0,0
161,3.556781,0,-0.004,0.035,-0.020,6.654,1.720,179.701,-1.231,0.000,0.112,-4.250,-14.250,-28.812,1.156,0.297,9.898,0.003,-0.058,-0.015,-0.998,1,-35.246,-7.788,0.000,24.548,2,0.000000,0.000000,0.000000,0.000,0.000000,0,0,0,0,0
162,3.581683,0,-0.004,0.035,-0.059,6.653,1.706,179.707,-1.343,0.000,-0.224,-3.000,-14.500,-29.562,1.156,0.297,9.898,0.003,-0.058,-0.015,-0.998,1,-35.246,-7.788,0.000,24.548,2,0.000000,0.000000,0.000000,0.000,0.000000,0,0,0,0,0
163,3.601676,0,-0.004,0.043,0.020,6.653,1.672,179.712,-1.119,-0.224,-0.112,-2.312,-13.188,-30.750,1.156,0.289,9.898,0.003,-0.058,-0.015,-0.998,1,-38.402,-8.129,0.000,24.548,2,0.000000,0.000000,0.000000,0.000,0.000000,0,0,0,0,0
164,3.621677,0,0.035,0.004,0.059,6.653,1.651,179.718,-1.119,0.000,-0.224,-3.250,-15.438,-29.438,1.156,0.289,9.898,0.003,-0.058,-0.015,-0.998,1,-32.090,-7.431,0.000,24.548,2,0.000000,0.000000,0.000000,0.000,0.000000,0,0,0,0,0
165,3.633781,0,-0.004,0.035,0.020,6.653,1.630,179.723,-1.007,0.000,-0.224,-4.375,-16.438,-27.875,1.156,0.297,9.898,0.003,-0.058,-0.014,-0.998,1,-32.090,-7.431,0.000,24.548,2,0.000000,0.000000,0.000000,0.000,0.000000,0,0,0,0,0
166,3.661679,0,-0.004,-0.035,0.020,6.653,1.623,179.723,-0.895,0.000,-0.336,-4.375,-15.875,-29.688,1.156,0.289,9.898,0.003,-0.058,-0.014,-0.998,1,-38.402,-8.129,0.000,24.548,2,0.000000,0.000000,0.000000,0.000,0.000000,0,0,0,0,0
167,3.673781,0,-0.004,-0.035,0.020,6.652,1.610,179.729,-0.448,0.000,-0.112,-2.812,-13.188,-28.688,1.156,0.289,9.898,0.003,-0.058,-0.014,-0.998,1,-32.090,-7.431,0.000,24.548,2,0.000000,0.000000,0.000000,0.000,0.000000,0,0,0,0,0
168,3.706670,0,-0.043,-0.074,-0.020,6.652,1.603,179.729,-0.112,0.112,-0.112,-4.438,-15.750,-28.875,1.156,0.289,9.898,0.003,-0.058,-0.014,-0.998,1,-32.090,-7.431,0.000,24.548,2,0.000000,0.000000,0.000000,0.000,0.000000,0,0,0,0,0
169,3.718781,0,-0.043,-0.074,-0.059,6.652,1.603,179.729,0.000,0.000,0.224,-2.875,-15.062,-29.938,1.156,0.289,9.898,0.003,-0.058,-0.014,-0.998,1,-32.090,-7.431,0.000,24.548,2,0.000000,0.000000,0.000000,0.000,0.000000,0,0,0,0,0
170,3.741678,0,0.035,-0.102,0.020,6.652,1.610,179.729,0.336,-0.112,0.112,-4.875,-15.250,-29.750,1.156,0.281,9.898,0.003,-0.058,-0.014,-0.998,1,-32.090,-7.431,0.000,24.548,2,0.000000,0.000000,0.000000,0.000,0.000000,0,0,0,0,0
171,3.753781,0,0.035,-0.066,0.020,6.653,1.623,179.723,0.671,0.000,0.000,-4.750,-16.625,-28.688,1.156,0.281,9.898,0.003,-0.058,-0.014,-0.998,1,-32.090,-7.431,0.000,24.548,2,0.000000,0.000000,0.000000,0.000,0.000000,0,0,0,0,0
172,3.780677,0,0.035,0.012,0.020,6.653,1.630,179.723,0.783,0.112,0.112,-3.188,-15.375,-29.812,1.156,0.281,9.898,0.003,-0.058,-0.014,-0.998,1,-32.090,-7.431,0.000,24.548,2,0.000000,0.000000,0.000000,0.000,0.000000,0,0,0,0,0
173,3.796782,0,0.035,0.012,-0.020,6.653,1.651,179.725,0.783,0.000,0.224,-3.812,-17.188,-29.438,1.156,0.281,9.898,0.003,-0.058,-0.015,-0.998,1,-35.246,-7.788,0.000,24.548,2,0.000000,0.000000,0.000000,0.000,0.000000,0,0,0,0,0
174,3.826671,0,0.035,0.090,-0.027,6.653,1.658,179.718,0.224,0.000,0.336,-4.000,-15.062,-31.062,1.156,0.281,9.906,0.003,-0.058,-0.015,-0.998,1,-35.246,-7.788,0.000,24.548,2,0.000000,0.000000,0.000000,0.000,0.000000,0,0,0,0,0
175,3.842781,0,-0.043,0.051,-0.027,6.653,1.658,179.718,-0.224,0.000,0.000,-2.250,-14.000,-29.375,1.156,0.281,9.906,0.003,-0.058,-0.015,-0.998,1,-32.090,-7.431,0.000,24.548,2,0.000000,0.000000,0.000000,0.000,0.000000,0,0,0,0,0
176,3.861676,0,-0.043,-0.027,0.012,6.653,1.644,179.717,-0.783,0.000,-0.336,-3.812,-17.250,-29.000,1.156,0.281,9.906,0.003,-0.058,-0.014,-0.998,1,-32.090,-7.431,0.000,24.548,2,0.000000,0.000000,0.000000,0.000,0.000000,0,0,0,0,0
177,3.891677,0,-0.043,0.012,0.012,6.660,1.616,179.723,-1.007,-0.112,-0.112,-3.375,-18.562,-27.125,1.156,0.281,9.906,0.003,-0.058,-0.014,-0.998,1,-38.402,-8.129,0.000,24.548,2,0.000000,0.000000,0.000000,0.000,0.000000,0,0,0,0,0
178,3.915678,0,-0.004,0.012,0.012,6.660,1.595,179.721,-1.119,0.000,-0.224,-3.500,-13.312,-29.500,1.156,0.273,9.906,0.003,-0.058,-0.014,-0.998,1,-38.402,-8.129,0.000,24.548,2,0.000000,0.000000,0.000000,0.000,0.000000,0,0,0,0,0
179,3.931782,0,0.035,0.020,-0.027,6.659,1.575,179.727,-1.343,-0.112,-0.224,-4.625,-17.562,-28.438,1.156,0.273,9.906,0.003,-0.058,-0.014,-0.998,1,-35.246,-7.788,0.000,24.548,2,0.000000,0.000000,0.000000,0.000,0.000000,0,0,0,0,0
180,3.943781,0,0.035,0.020,0.012,6.659,1.554,179.733,-1.007,-0.112,-0.336,-5.125,-13.875,-28.375,1.156,0.273,9.906,0.003,-0.058,-0.014,-0.998,1,-38.402,-8.129,0.000,24.548,2,0.000000,0.000000,0.000000,0.000,0.000000,0,0,0,0,0
181,3.970678,0,-0.004,-0.020,-0.027,6.659,1.533,179.739,-0.783,0.000,-0.224,-3.688,-15.562,-28.562,1.156,0.266,9.906,0.003,-0.058,-0.013,-0.998,1,-35.246,-7.788,0.000,24.548,2,0.000000,0.000000,0.000000,0.000,0.000000,0,0,0,0,0
182,3.986781,0,-0.004,-0.020,0.012,6.659,1.527,179.745,-0.448,0.000,-0.336,-3.125,-13.688,-29.438,1.156,0.273,9.906,0.003,-0.058,-0.013,-0.998,1,-32.090,-7.431,0.000,24.548,2,0.000000,0.000000,0.000000,0.000,0.000000,0,0,0,0,0
183,4.010677,0,-0.004,-0.094,-0.066,6.666,1.527,179.753,0.560,0.000,-0.112,-4.062,-15.000,-29.875,1.156,0.273,9.906,0.003,-0.058,-0.013,-0.998,1,-35.246,-7.788,0.000,24.548,2,0.000000,0.000000,0.000000,0.000,0.000000,0,0,0,0,0
184,4.026781,0,-0.004,-0.059,0.012,6.666,1.541,179.753,0.895,0.000,-0.336,-4.375,-12.500,-30.000,1.156,0.273,9.906,0.003,-0.058,-0.014,-0.998,1,-32.090,-7.431,0.000,24.548,2,0.000000,0.000000,0.000000,0.000,0.000000,0,0,0,0,0
185,4.050677,0,-0.004,-0.094,-0.027,6.659,1.562,179.762,1.343,0.000,0.000,-4.375,-12.500,-30.000,1.156,0.273,9.906,0.003,-0.058,-0.014,-0.998,1,-35.246,-7.788,0.000,24.548,2,0.000000,0.000000,0.000000,0.000,0.000000,0,0,0,0,0
186,4.071677,0,-0.004,-0.094,-0.027,6.659,1.597,179.757,1.902,0.000,0.224,-4.312,-20.125,-28.000,1.156,0.281,9.906,0.003,-0.058,-0.014,-0.998,1,-35.246,-7.788,0.000,24.548,2,0.000000,0.000000,0.000000,0.000,0.000000,0,0,0,0,0
187,4.091677,0,0.035,-0.027,0.012,6.659,1.632,179.759,1.790,0.000,0.224,-3.500,-15.938,-30.125,1.156,0.273,9.906,0.003,-0.058,-0.014,-0.998,1,-35.246,-7.788,0.000,24.548,2,0.000000,0.000000,0.000000,0.000,0.000000,0,0,0,0,0
188,4.103781,0,0.074,0.012,0.051,6.659,1.660,179.753,1.567,0.112,0.224,-5.875,-13.688,-29.312,1.156,0.281,9.906,0.003,-0.058,-0.015,-0.998,1,-38.402,-8.129,0.000,24.548,2,0.000000,0.000000,0.000000,0.000,0.000000,0,0,0,0,0
189,4.130677,0,-0.004,0.043,0.012,6.660,1.688,179.748,1.343,0.000,0.112,-4.688,-16.875,-29.062,1.156,0.289,9.906,0.003,-0.058,-0.015,-0.998,1,-35.246,-7.788,0.000,24.548,2,0.000000,0.000000,0.000000,0.000,0.000000,0,0,0,0,0
190,4.142781,0,-0.004,0.043,0.012,6.660,1.709,179.742,0.895,0.000,0.112,-4.375,-15.875,-29.688,1.156,0.289,9.906,0.003,-0.058,-0.015,-0.998,1,-35.246,-7.788,0.000,24.548,2,0.000000,0.000000,0.000000,0.000,0.000000,0,0,0,0,0
191,4.170677,0,-0.004,0.082,0.012,6.660,1.716,179.742,0.000,0.000,0.336,-5.062,-16.750,-29.500,1.156,0.289,9.906,0.003,-0.058,-0.015,-0.998,1,-35.246,-7.788,0.000,24.548,2,0.000000,0.000000,0.000000,0.000,0.000000,0,0,0,0,0
192,4.182781,0,-0.004,0.043,0.012,6.660,1.708,179.735,-0.448,0.000,0.224,-2.125,-15.312,-29.188,1.156,0.289,9.906,0.003,-0.058,-0.015,-0.998,1,-35.246,-7.788,0.000,24.548,2,0.000000,0.000000,0.000000,0.000,0.000000,0,0,0,0,0
193,4.210677,0,-0.004,0.012,0.012,6.653,1.694,179.734,-1.231,-0.112,0.224,-4.688,-13.375,-30.250,1.156,0.289,9.906,0.003,-0.058,-0.015,-0.998,1,-35.246,-7.788,0.000,24.548,2,0.000000,0.000000,0.000000,0.000,0.000000,0,0,0,0,0
194,4.230676,0,-0.043,0.051,-0.027,6.653,1.659,179.732,-1.902,0.112,0.000,-5.875,-17.062,-28.938,1.156,0.289,9.906,0.003,-0.058,-0.015,-0.998,1,-32.090,-7.431,0.000,24.548,2,0.000000,0.000000,0.000000,0.000,0.000000,0,0,0,0,0
195,4.250677,0,-0.004,0.012,-0.027,6.653,1.624,179.730,-1.679,-0.112,-0.112,-5.000,-17.500,-28.500,1.156,0.281,9.906,0.003,-0.058,-0.014,-0.998,1,-35.246,-7.788,0.000,24.548,2,0.000000,0.000000,0.000000,0.000,0.000000,0,0,0,0,0
196,4.296670,0,0.035,-0.059,0.012,6.659,1.589,179.728,-1.567,0.000,0.224,-2.625,-17.688,-29.000,1.156,0.273,9.906,0.003,-0.058,-0.014,-0.998,1,-35.246,-7.788,0.000,24.548,2,0.000000,0.000000,0.000000,0.000,0.000000,0,0,0,0,0
197,4.316680,0,0.035,-0.012,0.051,6.659,1.546,179.726,0.000,-0.112,0.000,-4.875,-11.750,-30.562,1.156,0.266,9.906,0.003,-0.058,-0.014,-0.998,1,-35.246,-7.788,0.000,24.548,2,0.000000,0.000000,0.000000,0.000,0.000000,0,0,0,0,0
198,4.332781,0,-0.004,-0.012,0.012,6.659,1.546,179.726,0.560,0.000,-0.224,-1.938,-16.500,-29.375,1.156,0.273,9.906,0.003,-0.058,-0.014,-0.998,1,-35.246,-7.788,0.000,24.548,2,0.000000,0.000000,0.000000,0.000,0.000000,0,0,0,0,0
199,4.344781,0,-0.004,-0.020,0.012,6.659,1.560,179.726,1.119,0.000,0.000,-2.125,-15.312,-29.188,1.156,0.273,9.906,0.003,-0.058,-0.014,-0.998,1,-35.246,-7.788,0.000,24.548,2,0.000000,0.000000,0.000000,0.000,0.000000,0,0,0,0,0
200,4.369677,0,-0.043,0.020,-0.027,6.659,1.582,179.728,0.000,0.000,0.000,-2.125,-15.312,-29.188,1.156,0.273,9.906,0.003,-0.058,-0.014,-0.998,1,-35.246,-7.788,0.000,24.548,2,0.000000,0.000000,0.000000,0.000,0.000000,0,0,0,0,0
201,4.381781,0,-0.043,0.020,-0.066,6.659,1.582,179.728,0.000,0.000,0.000,-5.000,-17.375,-29.375,1.156,0.273,9.906,0.003,-0.058,-0.014,-0.998,1,-35.246,-7.788,0.000,24.548,2,0.000000,0.000000,0.000000,0.000,0.000000,0,0,0,0,0
202,4.409676,0,-0.043,0.020,0.012,6.659,1.582,179.728,0.000,0.000,0.000,-4.312,-13.562,-29.438,1.156,0.273,9.906,0.003,-0.058,-0.014,-0.998,1,-38.402,-8.129,0.000,24.548,2,0.000000,0.000000,0.000000,0.000,0.000000,0,0,0,0,0
203,4.445670,0,0.043,-0.020,-0.027,6.659,1.582,179.728,0.000,0.000,0.000,-3.250,-18.125,-29.750,1.148,0.273,9.906,0.003,-0.058,-0.014,-0.998,1,-35.246,-7.788,0.000,24.548,2,0.000000,0.000000,0.000000,0.000,0.000000,0,0,0,0,0
204,4.461782,0,0.043,0.020,-0.066,6.659,1.582,179.728,0.000,0.000,0.000,-2.938,-14.812,-29.688,1.148,0.273,9.906,0.003,-0.058,-0.014,-0.998,1,-35.246,-7.788,0.000,24.548,2,0.000000,0.000000,0.000000,0.000,0.000000,0,0,0,0,0
205,4.480677,0,0.074,-0.020,0.012,6.652,1.582,179.728,0.000,0.000,0.000,-1.500,-17.312,-28.375,1.156,0.273,9.906,0.003,-0.058,-0.014,-0.998,1,-35.246,-7.788,0.000,24.548,2,0.000000,0.000000,0.000000,0.000,0.000000,0,0,0,0,0
206,4.499677,0,0.035,0.020,0.012,6.652,1.582,179.728,0.000,0.000,0.000,-4.375,-15.938,-29.312,1.156,0.273,9.906,0.003,-0.058,-0.014,-0.998,1,-35.246,-7.788,0.000,24.548,2,0.000000,0.000000,0.000000,0.000,0.000000,0,0,0,0,0
207,4.520677,0,-0.004,0.059,-0.066,6.652,1.582,179.728,0.000,0.000,0.000,-1.750,-17.625,-29.875,1.156,0.273,9.906,0.003,-0.058,-0.014,-0.998,1,-32.090,-7.431,0.000,24.548,2,0.000000,0.000000,0.000000,0.000,0.000000,0,0,0,0,0
208,4.540677,0,-0.043,0.020,-0.059,6.652,1.582,179.728,0.000,0.000,0.000,-3.500,-13.875,-29.750,1.156,0.273,9.898,0.003,-0.058,-0.014,-0.998,1,-32.090,-7.431,0.000,24.548,2,0.000000,0.000000,0.000000,0.000,0.000000,0,0,0,0,0
209,4.560677,0,-0.043,0.012,-0.020,6.652,1.582,179.728,0.000,0.000,0.000,-2.875,-15.875,-29.000,1.156,0.273,9.898,0.003,-0.058,-0.014,-0.998,1,-32.090,-7.431,0.000,24.548,2,0.000000,0.000000,0.000000,0.000,0.000000,0,0,0,0,0
210,4.572781,0,-0.043,-0.027,-0.020,6.652,1.582,179.728,0.000,0.000,0.000,-3.750,-21.875,-26.812,1.156,0.281,9.898,0.003,-0.058,-0.014,-0.998,1,-27.881,-6.927,0.000,24.548,2,0.000000,0.000000,0.000000,0.000,0.000000,0,0,0,0,0
211,4.606684,0,-0.004,-0.027,-0.020,6.652,1.575,179.727,-1.119,-0.112,-0.224,-2.125,-18.000,-29.438,1.156,0.281,9.898,0.003,-0.058,-0.014,-0.998,1,-32.090,-7.431,0.000,24.548,2,0.000000,0.000000,0.000000,0.000,0.000000,0,0,0,0,0
212,4.620676,0,-0.004,-0.066,0.020,6.659,1.561,179.733,0.224,0.112,-0.112,-1.000,-17.938,-28.688,1.156,0.273,9.898,0.003,-0.058,-0.014,-0.998,1,-35.246,-7.788,0.000,24.548,2,0.000000,0.000000,0.000000,0.000,0.000000,0,0,0,0,0
213,4.639677,0,-0.004,-0.059,0.020,6.659,1.568,179.734,1.119,0.112,-0.224,-4.562,-14.375,-29.688,1.156,0.273,9.898,0.003,-0.058,-0.014,-0.998,1,-35.246,-7.788,0.000,24.548,2,0.000000,0.000000,0.000000,0.000,0.000000,0,0,0,0,0
214,4.659677,0,0.035,-0.020,-0.020,6.652,1.596,179.735,1.343,-0.112,-0.224,-3.562,-13.125,-30.375,1.156,0.281,9.898,0.003,-0.058,-0.014,-0.998,1,-35.246,-7.788,0.000,24.548,2,0.000000,0.000000,0.000000,0.000,0.000000,0,0,0,0,0
215,4.679677,0,0.035,-0.035,0.020,6.652,1.624,179.737,1.679,0.000,0.000,-3.625,-12.875,-30.000,1.156,0.281,9.898,0.003,-0.058,-0.014,-0.998,1,-35.246,-7.788,0.000,24.548,2,0.000000,0.000000,0.000000,0.000,0.000000,0,0,0,0,0
216,4.695781,0,0.035,0.004,0.059,6.652,1.659,179.739,1.790,0.112,-0.336,-3.688,-14.688,-30.000,1.156,0.289,9.898,0.003,-0.058,-0.015,-0.998,1,-35.246,-7.788,0.000,24.548,2,0.000000,0.000000,0.000000,0.000,0.000000,0,0,0,0,0
217,4.719677,0,-0.043,0.004,-0.020,6.652,1.688,179.748,1.231,-0.112,0.112,-2.812,-16.125,-29.312,1.156,0.289,9.898,0.003,-0.058,-0.015,-0.998,1,-32.090,-7.431,0.000,24.548,2,0.000000,0.000000,0.000000,0.000,0.000000,0,0,0,0,0
218,4.739678,0,-0.043,0.004,-0.020,6.653,1.716,179.742,0.895,0.112,0.000,-5.438,-14.062,-28.812,1.156,0.289,9.898,0.003,-0.058,-0.015,-0.998,1,-32.090,-7.431,0.000,24.548,2,0.000000,0.000000,0.000000,0.000,0.000000,0,0,0,0,0
219,4.779677,0,-0.004,-0.035,0.051,6.653,1.730,179.743,0.112,-0.112,0.000,-2.000,-12.688,-30.562,1.156,0.289,9.906,0.003,-0.058,-0.015,-0.998,1,-35.246,-7.788,0.000,24.548,2,0.000000,0.000000,0.000000,0.000,0.000000,0,0,0,0,0
220,4.803673,0,-0.004,0.004,-0.027,6.653,1.722,179.736,-0.336,0.000,0.224,-2.250,-17.562,-28.312,1.156,0.289,9.906,0.003,-0.058,-0.015,-0.998,1,-32.090,-7.431,0.000,24.548,2,0.000000,0.000000,0.000000,0.000,0.000000,0,0,0,0,0
221,4.815781,0,-0.004,-0.035,-0.027,6.653,1.715,179.735,-0.112,0.000,0.224,-3.688,-18.125,-29.250,1.156,0.289,9.906,0.003,-0.058,-0.015,-0.998,1,-32.090,-7.431,0.000,24.548,2,0.000000,0.000000,0.000000,0.000,0.000000,0,0,0,0,0
222,4.839677,0,0.035,0.043,-0.066,6.660,1.708,179.728,-0.448,0.000,0.224,-3.750,-14.375,-30.125,1.156,0.289,9.906,0.003,-0.058,-0.015,-0.998,1,-32.090,-7.431,0.000,24.548,2,0.000000,0.000000,0.000000,0.000,0.000000,0,0,0,0,0
223,4.879694,0,-0.004,0.004,-0.020,6.660,1.701,179.728,-0.112,0.000,0.224,-3.875,-16.938,-29.125,1.156,0.289,9.906,0.003,-0.058,-0.015,-0.998,1,-32.090,-7.431,0.000,24.548,2,0.000000,0.000000,0.000000,0.000,0.000000,0,0,0,0,0
224,4.891781,0,-0.004,0.043,-0.020,6.660,1.693,179.720,-0.448,0.000,0.000,-2.438,-12.750,-29.750,1.156,0.289,9.898,0.003,-0.058,-0.015,-0.998,1,-27.881,-6.927,0.000,24.548,2,0.000000,0.000000,0.000000,0.000,0.000000,0,0,0,0,0
225,4.919689,0,-0.043,-0.035,-0.020,6.660,1.693,179.720,-0.336,0.000,0.224,-3.688,-14.688,-30.000,1.156,0.289,9.898,0.003,-0.058,-0.015,-0.998,1,-32.090,-7.431,0.000,24.548,2,0.000000,0.000000,0.000000,0.000,0.000000,0,0,0,0,0
226,4.939677,0,-0.004,-0.035,0.020,6.660,1.686,179.720,-0.336,0.000,0.000,-4.438,-15.188,-30.312,1.156,0.281,9.898,0.003,-0.058,-0.015,-0.998,1,-32.090,-7.431,0.000,24.548,2,0.000000,0.000000,0.000000,0.000,0.000000,0,0,0,0,0
227,4.958676,0,-0.004,-0.027,0.059,6.660,1.679,179.719,-0.112,0.112,0.000,-5.562,-15.312,-30.562,1.156,0.281,9.898,0.003,-0.058,-0.015,-0.998,1,-32.090,-7.431,0.000,24.548,2,0.000000,0.000000,0.000000,0.000,0.000000,0,0,0,0,0
228,4.970782,0,-0.043,-0.066,0.020,6.660,1.672,179.719,-0.224,0.000,0.112,-5.875,-16.750,-29.125,1.156,0.281,9.898,0.003,-0.058,-0.015,-0.998,1,-27.881,-6.927,0.000,24.548,2,0.000000,0.000000,0.000000,0.000,0.000000,0,0,0,0,0
229,5.005671,0,0.035,-0.027,-0.020,6.660,1.672,179.719,-0.224,0.000,0.112,-3.438,-13.812,-30.312,1.156,0.281,9.898,0.003,-0.058,-0.015,-0.998,1,-32.090,-7.431,0.000,24.548,2,0.000000,0.000000,0.000000,0.000,0.000000,0,0,0,0,0
230,5.017782,0,0.074,-0.027,-0.020,6.660,1.665,179.712,-0.783,0.000,0.224,-4.500,-15.438,-28.625,1.156,0.281,9.898,0.003,-0.058,-0.015,-0.998,1,-35.246,-7.788,0.000,24.548,2,0.000000,0.000000,0.000000,0.000,0.000000,0,0,0,0,0
231,5.038677,0,0.035,0.020,0.059,6.660,1.658,179.711,-0.448,0.000,0.000,-4.938,-14.562,-30.062,1.156,0.273,9.898,0.003,-0.058,-0.015,-0.998,1,-38.402,-8.129,0.000,24.548,2,0.000000,0.000000,0.000000,0.000,0.000000,0,0,0,0,0
232,5.054781,0,0.035,0.020,-0.020,6.660,1.629,179.702,-0.783,-0.112,0.112,-2.188,-17.562,-29.938,1.156,0.266,9.898,0.003,-0.058,-0.014,-0.998,1,-35.246,-7.788,0.000,24.548,2,0.000000,0.000000,0.000000,0.000,0.000000,0,0,0,0,0
233,5.077678,0,-0.004,0.027,-0.020,6.660,1.615,179.702,-0.560,0.000,0.112,-2.188,-17.562,-29.938,1.156,0.266,9.898,0.003,-0.058,-0.014,-0.998,1,-38.402,-8.129,0.000,24.548,2,0.000000,0.000000,0.000000,0.000,0.000000,0,0,0,0,0
234,5.109677,0,-0.043,-0.020,0.020,6.660,1.608,179.701,-0.224,0.000,0.000,-3.688,-15.188,-28.750,1.156,0.266,9.898,0.003,-0.058,-0.014,-0.998,1,-38.402,-8.129,0.000,24.548,2,0.000000,0.000000,0.000000,0.000,0.000000,0,0,0,0,0
235,5.129677,0,-0.043,-0.059,0.059,6.660,1.608,179.701,0.336,0.000,-0.224,-1.312,-14.000,-32.000,1.156,0.273,9.898,0.003,-0.058,-0.014,-0.998,1,-38.402,-8.129,0.000,24.548,2,0.000000,0.000000,0.000000,0.000,0.000000,0,0,0,0,0
236,5.149677,0,-0.043,0.012,0.059,6.660,1.622,179.709,0.895,0.000,-0.112,-3.062,-14.312,-29.375,1.156,0.273,9.898,0.003,-0.058,-0.014,-0.998,1,-32.090,-7.431,0.000,24.548,2,0.000000,0.000000,0.000000,0.000,0.000000,0,0,0,0,0
237,5.169677,0,-0.043,0.051,0.020,6.660,1.644,179.710,1.679,0.112,-0.224,-3.312,-15.125,-29.562,1.156,0.281,9.898,0.003,-0.058,-0.014,-0.998,1,-32.090,-7.431,0.000,24.548,2,0.000000,0.000000,0.000000,0.000,0.000000,0,0,0,0,0
238,5.194680,0,0.035,-0.035,-0.020,6.653,1.679,179.712,1.679,0.000,-0.336,-1.688,-14.875,-30.188,1.156,0.289,9.898,0.003,-0.058,-0.015,-0.998,1,-35.246,-7.788,0.000,24.548,2,0.000000,0.000000,0.000000,0.000,0.000000,0,0,0,0,0
239,5.210782,0,0.043,0.004,-0.059,6.653,1.707,179.721,1.343,0.000,-0.112,-2.688,-14.062,-29.062,1.148,0.297,9.898,0.003,-0.058,-0.015,-0.998,1,-35.246,-7.788,0.000,24.548,2,0.000000,0.000000,0.000000,0.000,0.000000,0,0,0,0,0
240,5.234673,0,0.082,-0.043,0.020,6.653,1.735,179.723,1.007,0.000,-0.112,-3.062,-14.312,-29.375,1.148,0.297,9.898,0.003,-0.058,-0.015,-0.998,1,-32.090,-7.431,0.000,24.548,2,0.000000,0.000000,0.000000,0.000,0.000000,0,0,0,0,0
241,5.250781,0,0.074,-0.004,0.059,6.653,1.750,179.723,0.224,0.000,-0.112,-4.688,-16.438,-30.000,1.156,0.297,9.898,0.003,-0.058,-0.015,-0.998,1,-32.090,-7.431,0.000,24.548,2,0.000000,0.000000,0.000000,0.000,0.000000,0,0,0,0,0
242,5.268685,0,0.035,-0.043,-0.020,6.653,1.757,179.724,0.000,0.112,0.000,-6.312,-15.938,-30.000,1.156,0.305,9.898,0.003,-0.058,-0.015,-0.998,1,-35.246,-7.788,0.000,24.548,2,0.000000,0.000000,0.000000,0.000,0.000000,0,0,0,0,0
243,5.289677,0,-0.004,-0.043,-0.020,6.646,1.750,179.723,-0.671,0.112,0.224,-4.500,-18.500,-28.375,1.156,0.297,9.898,0.003,-0.058,-0.015,-0.998,1,-32.090,-7.431,0.000,24.548,2,0.000000,0.000000,0.000000,0.000,0.000000,0,0,0,0,0
244,5.308677,0,-0.043,-0.004,-0.059,6.646,1.728,179.722,-1.343,0.000,0.336,-2.438,-16.250,-29.000,1.156,0.297,9.898,0.003,-0.058,-0.015,-0.998,1,-32.090,-7.431,0.000,24.548,2,0.000000,0.000000,0.000000,0.000,0.000000,0,0,0,0,0
245,5.324781,0,-0.043,0.004,-0.059,6.646,1.700,179.713,-1.119,0.000,0.224,-4.938,-14.562,-30.062,1.156,0.289,9.898,0.003,-0.058,-0.015,-0.998,1,-35.246,-7.788,0.000,24.548,2,0.000000,0.000000,0.000000,0.000,0.000000,0,0,0,0,0
246,5.348677,0,-0.043,0.020,0.059,6.653,1.672,179.712,-1.455,-0.112,0.224,-3.125,-12.812,-30.875,1.156,0.281,9.898,0.003,-0.058,-0.015,-0.998,1,-32.090,-7.431,0.000,24.548,2,0.000000,0.000000,0.000000,0.000,0.000000,0,0,0,0,0
247,5.369677,0,0.035,0.059,0.059,6.653,1.650,179.704,-0.895,0.000,0.224,-0.250,-16.938,-29.812,1.156,0.273,9.898,0.003,-0.058,-0.015,-0.998,1,-35.246,-7.788,0.000,24.548,2,0.000000,0.000000,0.000000,0.000,0.000000,0,0,0,0,0
248,5.388678,0,0.035,0.012,0.020,6.653,1.636,179.703,-0.112,0.112,-0.112,-3.312,-15.938,-28.188,1.156,0.281,9.898,0.003,-0.058,-0.014,-0.998,1,-35.246,-7.788,0.000,24.548,2,0.000000,0.000000,0.000000,0.000,0.000000,0,0,0,0,0
249,5.409678,0,-0.004,0.012,0.020,6.646,1.637,179.710,0.112,0.000,-0.224,-2.562,-14.938,-29.312,1.156,0.281,9.906,0.003,-0.058,-0.014,-0.998,1,-38.402,-8.129,0.000,24.548,2,0.000000,0.000000,0.000000,0.000,0.000000,0,0,0,0,0
250,5.434670,0,-0.004,-0.027,-0.027,6.646,1.644,179.710,1.231,-0.112,0.000,-3.000,-14.562,-29.750,1.156,0.281,9.906,0.003,-0.058,-0.014,-0.998,1,-32.090,-7.431,0.000,24.548,2,0.000000,0.000000,0.000000,0.000,0.000000,0,0,0,0,0
251,5.446781,0,-0.004,0.004,-0.066,6.646,1.672,179.712,1.455,0.000,-0.112,-2.375,-16.125,-29.375,1.156,0.289,9.906,0.003,-0.058,-0.015,-0.998,1,-35.246,-7.788,0.000,24.548,2,0.000000,0.000000,0.000000,0.000,0.000000,0,0,0,0,0
252,5.474672,0,0.035,-0.082,0.012,6.653,1.707,179.714,1.790,0.000,0.000,-4.000,-15.125,-30.750,1.156,0.297,9.906,0.003,-0.058,-0.015,-0.998,1,-35.246,-7.788,0.000,24.548,2,0.000000,0.000000,0.000000,0.000,0.000000,0,0,0,0,0
253,5.489678,0,0.035,-0.117,0.012,6.653,1.742,179.716,1.567,0.000,0.000,-3.188,-16.875,-28.438,1.156,0.305,9.906,0.003,-0.058,-0.015,-0.998,1,-38.402,-8.129,0.000,24.548,2,0.000000,0.000000,0.000000,0.000,0.000000,0,0,0,0,0
254,5.513672,0,0.027,-0.043,0.051,6.646,1.770,179.717,1.567,0.000,0.000,-4.188,-13.688,-30.250,1.164,0.305,9.906,0.003,-0.058,-0.016,-0.998,1,-38.402,-8.129,0.000,24.548,2,0.000000,0.000000,0.000000,0.000,0.000000,0,0,0,0,0
255,5.525781,0,-0.012,-0.051,-0.027,6.654,1.798,179.712,0.895,0.000,0.112,-2.875,-15.562,-29.125,1.164,0.305,9.906,0.003,-0.058,-0.016,-0.998,1,-35.246,-7.788,0.000,24.548,2,0.000000,0.000000,0.000000,0.000,0.000000,0,0,0,0,0
256,5.548675,0,-0.012,0.066,-0.066,6.654,1.812,179.713,0.448,0.000,0.224,-2.875,-15.562,-29.125,1.164,0.305,9.906,0.003,-0.058,-0.016,-0.998,1,-42.611,-8.563,0.000,24.548,2,0.000000,0.000000,0.000000,0.000,0.000000,0,0,0,0,0
257,5.578677,0,-0.012,0.027,0.020,6.654,1.812,179.706,-0.224,0.000,0.336,-5.125,-16.688,-28.375,1.164,0.305,9.906,0.003,-0.058,-0.016,-0.998,1,-42.611,-8.563,0.000,24.548,2,0.000000,0.000000,0.000000,0.000,0.000000,0,0,0,0,0
258,5.590781,0,-0.012,0.027,0.020,6.654,1.783,179.704,-1.231,-0.112,0.000,-2.438,-19.312,-28.812,1.164,0.305,9.898,0.003,-0.058,-0.016,-0.998,1,-35.246,-7.788,0.000,24.548,2,0.000000,0.000000,0.000000,0.000,0.000000,0,0,0,0,0
259,5.624672,0,-0.012,0.035,0.059,6.661,1.776,179.704,-1.119,-0.224,0.000,-3.812,-13.438,-30.312,1.164,0.297,9.898,0.003,-0.058,-0.016,-0.998,1,-38.402,-8.129,0.000,24.548,2,0.000000,0.000000,0.000000,0.000,0.000000,0,0,0,0,0
260,5.638677,0,-0.012,0.043,0.020,6.661,1.734,179.702,-1.231,0.000,0.000,-5.625,-15.938,-28.875,1.164,0.289,9.898,0.003,-0.058,-0.015,-0.998,1,-35.246,-7.788,0.000,24.548,2,0.000000,0.000000,0.000000,0.000,0.000000,0,0,0,0,0
261,5.664672,0,-0.051,0.043,-0.059,6.668,1.706,179.700,-1.007,0.000,-0.224,-3.125,-16.812,-28.875,1.164,0.289,9.898,0.003,-0.058,-0.015,-0.998,1,-35.246,-7.788,0.000,24.548,2,0.000000,0.000000,0.000000,0.000,0.000000,0,0,0,0,0
262,5.678678,0,-0.051,0.004,-0.059,6.667,1.692,179.706,-0.336,-0.112,-0.224,-3.438,-14.625,-28.938,1.164,0.289,9.898,0.003,-0.058,-0.015,-0.998,1,-35.246,-7.788,0.000,24.548,2,0.000000,0.000000,0.000000,0.000,0.000000,0,0,0,0,0
263,5.703671,0,-0.004,-0.035,-0.020,6.667,1.679,179.712,-0.224,-0.224,-0.336,-3.938,-16.000,-29.375,1.164,0.289,9.898,0.003,-0.058,-0.015,-0.998,1,-35.246,-7.788,0.000,24.548,2,0.000000,0.000000,0.000000,0.000,0.000000,0,0,0,0,0
264,5.715781,0,-0.004,-0.035,0.020,6.667,1.686,179.720,0.448,0.000,-0.336,-5.812,-17.812,-28.062,1.156,0.289,9.898,0.003,-0.058,-0.015,-0.998,1,-35.246,-7.788,0.000,24.548,2,0.000000,0.000000,0.000000,0.000,0.000000,0,0,0,0,0
265,5.737674,0,0.035,-0.082,0.059,6.667,1.701,179.728,0.783,0.112,-0.448,-2.625,-19.875,-30.250,1.156,0.297,9.898,0.003,-0.058,-0.015,-0.998,1,-38.402,-8.129,0.000,24.548,2,0.000000,0.000000,0.000000,0.000,0.000000,0,0,0,0,0
266,5.758678,0,0.035,-0.082,0.059,6.667,1.722,179.736,1.231,0.112,-0.336,-5.188,-15.812,-29.750,1.156,0.289,9.898,0.003,-0.058,-0.015,-0.998,1,-35.246,-7.788,0.000,24.548,2,0.000000,0.000000,0.000000,0.000,0.000000,0,0,0,0,0
267,5.777677,0,0.035,-0.043,-0.020,6.667,1.743,179.737,1.007,0.112,-0.224,-5.375,-14.688,-29.188,1.156,0.297,9.898,0.003,-0.058,-0.015,-0.998,1,-35.246,-7.788,0.000,24.548,2,0.000000,0.000000,0.000000,0.000,0.000000,0,0,0,0,0
268,5.798677,0,-0.012,-0.004,-0.059,6.660,1.765,179.745,1.119,0.224,-0.112,-2.125,-15.375,-28.812,1.164,0.297,9.898,0.003,-0.058,-0.016,-0.998,1,-35.246,-7.788,0.000,24.548,2,0.000000,0.000000,0.000000,0.000,0.000000,0,0,0,0,0
269,5.817679,0,-0.012,-0.043,0.020,6.660,1.785,179.740,0.783,0.000,0.224,-4.438,-16.250,-27.688,1.164,0.297,9.898,0.003,-0.058,-0.016,-0.998,1,-35.246,-7.788,0.000,24.548,2,0.000000,0.000000,0.000000,0.000,0.000000,0,0,0,0,0
270,5.833781,0,-0.012,-0.043,0.020,6.667,1.792,179.733,0.224,0.000,0.560,-2.875,-15.062,-30.062,1.164,0.297,9.898,0.003,-0.058,-0.016,-0.998,1,-35.246,-7.788,0.000,24.548,2,0.000000,0.000000,0.000000,0.000,0.000000,0,0,0,0,0
271,5.848677,0,-0.012,-0.004,-0.020,6.667,1.798,179.719,0.000,0.112,0.448,-2.125,-14.500,-30.688,1.164,0.297,9.898,0.003,-0.058,-0.016,-0.998,1,-35.246,-7.788,0.000,24.548,2,0.000000,0.000000,0.000000,0.000,0.000000,0,0,0,0,0
272,5.860781,0,-0.012,-0.004,-0.020,6.668,1.791,179.712,-0.448,0.112,0.448,-4.938,-18.250,-28.062,1.164,0.297,9.898,0.003,-0.058,-0.016,-0.998,1,-35.246,-7.788,0.000,24.548,2,0.000000,0.000000,0.000000,0.000,0.000000,0,0,0,0,0
273,5.897677,0,0.027,0.043,0.020,6.661,1.776,179.704,-0.783,0.112,0.448,-3.438,-13.750,-30.375,1.164,0.297,9.898,0.003,-0.058,-0.016,-0.998,1,-32.090,-7.431,0.000,24.548,2,0.000000,0.000000,0.000000,0.000,0.000000,0,0,0,0,0
274,5.909783,0,-0.012,0.043,0.020,6.661,1.755,179.689,-1.231,0.000,0.336,-3.562,-16.062,-29.438,1.164,0.289,9.898,0.004,-0.058,-0.015,-0.998,1,-38.402,-8.129,0.000,24.548,2,0.000000,0.000000,0.000000,0.000,0.000000,0,0,0,0,0
275,5.943671,0,-0.012,0.129,-0.059,6.668,1.726,179.687,-1.567,0.224,0.224,-4.875,-15.312,-29.125,1.164,0.289,9.898,0.004,-0.058,-0.015,-0.998,1,-35.246,-7.788,0.000,24.548,2,0.000000,0.000000,0.000000,0.000,0.000000,0,0,0,0,0
276,5.958677,0,-0.012,0.129,-0.020,6.668,1.691,179.685,-1.343,-0.112,-0.112,-3.688,-12.438,-29.375,1.164,0.289,9.898,0.004,-0.058,-0.015,-0.998,1,-32.090,-7.431,0.000,24.548,2,0.000000,0.000000,0.000000,0.000,0.000000,0,0,0,0,0
277,5.977677,0,-0.051,0.051,0.020,6.668,1.671,179.691,-1.119,-0.112,-0.336,-4.500,-14.938,-30.000,1.164,0.281,9.898,0.004,-0.058,-0.015,-0.998,1,-35.246,-7.788,0.000,24.548,2,0.000000,0.000000,0.000000,0.000,0.000000,0,0,0,0,0
278,5.998677,0,-0.051,0.051,0.020,6.674,1.657,179.697,-0.224,0.000,-0.336,-2.750,-13.438,-29.188,1.156,0.289,9.898,0.003,-0.058,-0.015,-0.998,1,-35.246,-7.788,0.000,24.548,2,0.000000,0.000000,0.000000,0.000,0.000000,0,0,0,0,0
279,6.025671,0,0.035,0.004,0.020,6.674,1.657,179.704,0.560,-0.112,-0.671,-3.000,-14.500,-30.188,1.156,0.289,9.898,0.003,-0.058,-0.015,-0.998,1,-38.402,-8.129,0.000,24.548,2,0.000000,0.000000,0.000000,0.000,0.000000,0,0,0,0,0
280,6.037782,0,-0.004,0.004,0.098,6.674,1.679,179.720,0.895,0.000,-0.448,-2.375,-18.688,-30.562,1.156,0.297,9.898,0.003,-0.058,-0.015,-0.998,1,-35.246,-7.788,0.000,24.548,2,0.000000,0.000000,0.000000,0.000,0.000000,0,0,0,0,0
281,6.065672,0,-0.004,-0.043,0.020,6.674,1.687,179.727,0.895,0.224,-0.336,-3.125,-20.062,-27.375,1.156,0.297,9.898,0.003,-0.058,-0.015,-0.998,1,-35.246,-7.788,0.000,24.548,2,0.000000,0.000000,0.000000,0.000,0.000000,0,0,0,0,0
282,6.088677,0,-0.004,-0.090,-0.027,6.667,1.722,179.736,1.231,0.000,-0.224,-4.125,-17.750,-29.438,1.156,0.297,9.906,0.003,-0.058,-0.015,-0.998,1,-35.246,-7.788,0.000,24.548,2,0.000000,0.000000,0.000000,0.000,0.000000,0,0,0,0,0
283,6.100781,0,-0.004,-0.090,-0.027,6.667,1.743,179.737,0.895,0.000,0.000,-4.062,-14.938,-30.062,1.156,0.305,9.906,0.003,-0.058,-0.015,-0.998,1,-35.246,-7.788,0.000,24.548,2,0.000000,0.000000,0.000000,0.000,0.000000,0,0,0,0,0
284,6.128678,0,0.035,-0.051,0.012,6.667,1.757,179.738,0.671,0.000,0.224,-2.312,-16.375,-29.812,1.156,0.305,9.906,0.003,-0.058,-0.015,-0.998,1,-38.402,-8.129,0.000,24.548,2,0.000000,0.000000,0.000000,0.000,0.000000,0,0,0,0,0
285,6.140781,0,0.035,-0.051,0.012,6.667,1.764,179.731,0.112,0.112,0.448,-4.562,-14.375,-29.688,1.156,0.305,9.906,0.003,-0.058,-0.016,-0.998,1,-35.246,-7.788,0.000,24.548,2,0.000000,0.000000,0.000000,0.000,0.000000,0,0,0,0,0
286,6.168677,0,0.027,-0.004,0.090,6.660,1.764,179.724,-0.336,0.112,0.336,-3.812,-16.875,-29.688,1.164,0.297,9.906,0.003,-0.058,-0.016,-0.998,1,-35.246,-7.788,0.000,24.548,2,0.000000,0.000000,0.000000,0.000,0.000000,0,0,0,0,0
287,6.180781,0,0.027,-0.004,0.012,6.660,1.749,179.716,-0.783,0.112,0.560,-3.000,-15.062,-28.500,1.164,0.297,9.906,0.003,-0.058,-0.015,-0.998,1,-38.402,-8.129,0.000,24.548,2,0.000000,0.000000,0.000000,0.000,0.000000,0,0,0,0,0
288,6.207676,0,-0.051,0.082,-0.102,6.661,1.734,179.702,-0.783,0.112,0.560,-5.062,-14.188,-28.938,1.164,0.289,9.906,0.003,-0.058,-0.015,-0.998,1,-32.090,-7.431,0.000,24.548,2,0.000000,0.000000,0.000000,0.000,0.000000,0,0,0,0,0
289,6.219781,0,-0.012,0.090,-0.066,6.661,1.706,179.693,-1.231,0.000,0.560,-4.312,-16.125,-30.188,1.164,0.281,9.906,0.004,-0.058,-0.015,-0.998,1,-38.402,-8.129,0.000,24.548,2,0.000000,0.000000,0.000000,0.000,0.000000,0,0,0,0,0
290,6.248677,0,-0.012,0.043,-0.027,6.668,1.684,179.678,-0.895,-0.112,0.560,-4.625,-13.688,-30.312,1.164,0.281,9.906,0.004,-0.058,-0.015,-0.998,1,-35.246,-7.788,0.000,24.548,2,0.000000,0.000000,0.000000,0.000,0.000000,0,0,0,0,0
291,6.280782,0,-0.012,0.012,-0.027,6.668,1.662,179.669,-0.671,0.000,0.224,-2.188,-14.125,-30.750,1.164,0.281,9.906,0.004,-0.058,-0.015,-0.998,1,-38.402,-8.129,0.000,24.548,2,0.000000,0.000000,0.000000,0.000,0.000000,0,0,0,0,0
292,6.303674,0,0.027,0.051,0.059,6.675,1.656,179.676,0.112,0.112,-0.336,-3.875,-13.500,-29.938,1.164,0.281,9.898,0.004,-0.058,-0.015,-0.998,1,-38.402,-8.129,0.000,24.548,2,0.000000,0.000000,0.000000,0.000,0.000000,0,0,0,0,0
293,6.327677,0,-0.012,0.035,-0.027,6.675,1.656,179.676,0.336,0.000,-0.224,-5.188,-16.250,-28.875,1.164,0.281,9.898,0.004,-0.058,-0.015,-0.998,1,-35.246,-7.788,0.000,24.548,2,0.000000,0.000000,0.000000,0.000,0.000000,0,0,0,0,0
294,6.352677,0,-0.051,0.035,-0.027,6.668,1.684,179.685,1.231,0.000,-0.560,-5.188,-12.875,-29.188,1.164,0.297,9.906,0.004,-0.058,-0.015,-0.998,1,-35.246,-7.788,0.000,24.548,2,0.000000,0.000000,0.000000,0.000,0.000000,0,0,0,0,0
295,6.368782,0,-0.012,-0.012,-0.027,6.675,1.706,179.700,1.119,0.000,-0.336,-2.875,-15.000,-30.500,1.164,0.297,9.906,0.003,-0.058,-0.015,-0.998,1,-35.246,-7.788,0.000,24.548,2,0.000000,0.000000,0.000000,0.000,0.000000,0,0,0,0,0
296,6.380782,0,-0.051,-0.020,0.012,6.675,1.734,179.702,1.007,0.000,-0.224,-1.875,-13.750,-29.625,1.164,0.312,9.906,0.003,-0.058,-0.015,-0.998,1,-38.402,-8.129,0.000,24.548,2,0.000000,0.000000,0.000000,0.000,0.000000,0,0,0,0,0
297,6.407677,0,0.027,-0.098,-0.020,6.674,1.756,179.710,0.671,-0.112,-0.224,-5.000,-13.625,-30.312,1.164,0.312,9.906,0.003,-0.058,-0.015,-0.998,1,-35.246,-7.788,0.000,24.548,2,0.000000,0.000000,0.000000,0.000,0.000000,0,0,0,0,0
298,6.419781,0,0.027,-0.059,0.020,6.675,1.770,179.711,0.671,0.000,-0.112,-2.625,-14.250,-29.875,1.164,0.312,9.898,0.003,-0.058,-0.016,-0.998,1,-38.402,-8.129,0.000,24.548,2,0.000000,0.000000,0.000000,0.000,0.000000,0,0,0,0,0
299,6.447678,0,0.027,-0.059,0.012,6.675,1.777,179.711,0.000,0.000,-0.224,-4.125,-14.750,-29.688,1.164,0.312,9.898,0.003,-0.058,-0.016,-0.998,1,-35.246,-7.788,0.000,24.548,2,0.000000,0.000000,0.000000,0.000,0.000000,0,0,0,0,0
300,6.463781,0,0.027,-0.020,-0.027,6.675,1.770,179.711,-0.224,-0.112,0.224,-2.125,-15.438,-28.438,1.164,0.312,9.906,0.003,-0.058,-0.016,-0.998,1,-35.246,-7.788,0.000,24.548,2,0.000000,0.000000,0.000000,0.000,0.000000,0,0,0,0,0
301,6.487677,0,-0.012,-0.004,-0.020,6.681,1.763,179.711,-0.671,0.112,0.224,-3.500,-13.562,-29.938,1.164,0.297,9.906,0.003,-0.058,-0.016,-0.998,1,-35.246,-7.788,0.000,24.548,2,0.000000,0.000000,0.000000,0.000,0.000000,0,0,0,0,0
302,6.532686,0,-0.012,-0.004,-0.020,6.682,1.748,179.703,-0.783,0.000,0.448,-3.500,-14.312,-29.062,1.164,0.297,9.898,0.003,-0.058,-0.015,-0.998,1,-38.402,-8.129,0.000,24.548,2,0.000000,0.000000,0.000000,0.000,0.000000,0,0,0,0,0
303,6.544781,0,-0.012,-0.004,0.020,6.682,1.720,179.694,-0.112,0.000,0.336,-5.812,-15.125,-27.875,1.164,0.297,9.898,0.004,-0.058,-0.015,-0.998,1,-38.402,-8.129,0.000,24.548,2,0.000000,0.000000,0.000000,0.000,0.000000,0,0,0,0,0
304,6.567678,0,-0.012,0.004,0.020,6.682,1.713,179.694,-0.112,0.112,0.000,-3.750,-14.562,-29.375,1.164,0.289,9.898,0.004,-0.058,-0.015,-0.998,1,-35.246,-7.788,0.000,24.548,2,0.000000,0.000000,0.000000,0.000,0.000000,0,0,0,0,0
305,6.613671,0,-0.012,0.035,-0.027,6.682,1.720,179.694,0.336,0.000,-0.112,-4.125,-14.812,-29.250,1.164,0.297,9.906,0.004,-0.058,-0.015,-0.998,1,-35.246,-7.788,0.000,24.548,2,0.000000,0.000000,0.000000,0.000,0.000000,0,0,0,0,0
306,6.627676,0,-0.051,0.035,-0.027,6.682,1.741,179.695,0.783,0.000,-0.112,-4.625,-17.312,-28.312,1.164,0.297,9.906,0.004,-0.058,-0.015,-0.998,1,-38.402,-8.129,0.000,24.548,2,0.000000,0.000000,0.000000,0.000,0.000000,0,0,0,0,0
307,6.647677,0,0.027,0.027,0.012,6.682,1.762,179.696,0.895,-0.112,-0.224,-2.250,-14.375,-29.500,1.164,0.305,9.906,0.004,-0.058,-0.016,-0.998,1,-35.246,-7.788,0.000,24.548,2,0.000000,0.000000,0.000000,0.000,0.000000,0,0,0,0,0
308,6.659781,0,0.027,-0.012,0.012,6.682,1.776,179.704,0.448,0.000,-0.224,-2.500,-15.625,-28.812,1.164,0.305,9.906,0.003,-0.058,-0.016,-0.998,1,-38.402,-8.129,0.000,24.548,2,0.000000,0.000000,0.000000,0.000,0.000000,0,0,0,0,0
309,6.686677,0,-0.012,-0.012,0.012,6.682,1.783,179.705,0.224,0.000,-0.224,-0.938,-17.875,-29.250,1.164,0.305,9.906,0.003,-0.058,-0.016,-0.998,1,-35.246,-7.788,0.000,24.548,2,0.000000,0.000000,0.000000,0.000,0.000000,0,0,0,0,0
310,6.717678,0,-0.012,-0.012,-0.027,6.682,1.791,179.712,0.000,0.000,-0.224,-4.750,-15.875,-29.438,1.164,0.305,9.906,0.003,-0.058,-0.016,-0.998,1,-35.246,-7.788,0.000,24.548,2,0.000000,0.000000,0.000000,0.000,0.000000,0,0,0,0,0
311,6.733781,0,-0.012,-0.012,-0.027,6.682,1.784,179.712,-0.448,0.112,0.112,-3.312,-12.438,-29.438,1.164,0.305,9.906,0.003,-0.058,-0.016,-0.998,1,-38.402,-8.129,0.000,24.548,2,0.000000,0.000000,0.000000,0.000,0.000000,0,0,0,0,0
312,6.757677,0,-0.012,-0.012,0.051,6.682,1.777,179.711,-0.448,0.000,0.000,-2.625,-14.188,-30.312,1.164,0.305,9.906,0.003,-0.058,-0.016,-0.998,1,-38.402,-8.129,0.000,24.548,2,0.000000,0.000000,0.000000,0.000,0.000000,0,0,0,0,0
313,6.773781,0,-0.012,-0.012,-0.027,6.681,1.763,179.711,-1.119,0.000,0.224,-4.625,-14.125,-29.375,1.164,0.305,9.906,0.003,-0.058,-0.016,-0.998,1,-38.402,-8.129,0.000,24.548,2,0.000000,0.000000,0.000000,0.000,0.000000,0,0,0,0,0
314,6.796677,0,-0.012,0.035,0.012,6.682,1.741,179.702,-1.007,0.000,0.112,-3.125,-13.688,-29.188,1.164,0.297,9.906,0.003,-0.058,-0.015,-0.998,1,-35.246,-7.788,0.000,24.548,2,0.000000,0.000000,0.000000,0.000,0.000000,0,0,0,0,0
315,6.816676,0,-0.051,0.035,0.012,6.682,1.713,179.701,-0.895,0.112,-0.112,-2.438,-12.312,-30.750,1.156,0.289,9.906,0.003,-0.058,-0.015,-0.998,1,-35.246,-7.788,0.000,24.548,2,0.000000,0.000000,0.000000,0.000,0.000000,0,0,0,0,0
316,6.836676,0,-0.004,0.043,0.012,6.681,1.706,179.700,-0.448,0.000,0.000,-3.062,-13.875,-30.000,1.156,0.289,9.906,0.003,-0.058,-0.015,-0.998,1,-35.246,-7.788,0.000,24.548,2,0.000000,0.000000,0.000000,0.000,0.000000,0,0,0,0,0
317,6.856676,0,-0.004,0.043,-0.027,6.681,1.699,179.707,-0.336,0.000,-0.112,-2.938,-14.812,-30.188,1.156,0.289,9.906,0.003,-0.058,-0.015,-0.998,1,-35.246,-7.788,0.000,24.548,2,0.000000,0.000000,0.000000,0.000,0.000000,0,0,0,0,0
318,6.897676,0,-0.004,0.004,0.012,6.681,1.692,179.706,0.224,0.112,0.112,-2.500,-15.125,-30.125,1.156,0.289,9.906,0.003,-0.058,-0.015,-0.998,1,-35.246,-7.788,0.000,24.548,2,0.000000,0.000000,0.000000,0.000,0.000000,0,0,0,0,0
319,6.916677,0,-0.004,-0.043,-0.027,6.674,1.707,179.707,0.671,-0.112,-0.224,-3.500,-19.875,-28.250,1.156,0.289,9.906,0.003,-0.058,-0.015,-0.998,1,-38.402,-8.129,0.000,24.548,2,0.000000,0.000000,0.000000,0.000,0.000000,0,0,0,0,0
320,6.942679,0,0.035,-0.012,-0.027,6.674,1.728,179.715,0.783,0.000,-0.336,-5.375,-14.750,-28.812,1.156,0.305,9.906,0.003,-0.058,-0.015,-0.998,1,-38.402,-8.129,0.000,24.548,2,0.000000,0.000000,0.000000,0.000,0.000000,0,0,0,0,0
321,6.956676,0,-0.004,-0.012,0.051,6.674,1.742,179.716,0.671,0.000,-0.112,-4.562,-13.875,-31.062,1.156,0.305,9.906,0.003,-0.058,-0.015,-0.998,1,-35.246,-7.788,0.000,24.548,2,0.000000,0.000000,0.000000,0.000,0.000000,0,0,0,0,0
322,6.972781,0,-0.004,-0.012,0.051,6.674,1.757,179.724,0.336,0.000,-0.112,-3.500,-16.875,-28.125,1.156,0.305,9.906,0.003,-0.058,-0.015,-0.998,1,-38.402,-8.129,0.000,24.548,2,0.000000,0.000000,0.000000,0.000,0.000000,0,0,0,0,0
323,7.006677,0,-0.004,-0.012,-0.027,6.674,1.764,179.724,0.560,-0.112,-0.224,-3.000,-15.000,-28.938,1.156,0.305,9.906,0.003,-0.058,-0.016,-0.998,1,-35.246,-7.788,0.000,24.548,2,0.000000,0.000000,0.000000,0.000,0.000000,0,0,0,0,0
324,7.035678,0,-0.004,0.027,-0.027,6.674,1.771,179.725,-0.112,0.224,-0.112,-3.938,-19.500,-28.312,1.156,0.305,9.906,0.003,-0.058,-0.016,-0.998,1,-35.246,-7.788,0.000,24.548,2,0.000000,0.000000,0.000000,0.000,0.000000,0,0,0,0,0
325,7.051781,0,0.035,-0.012,-0.027,6.674,1.764,179.724,-0.336,0.000,0.112,-3.000,-15.000,-28.938,1.156,0.305,9.906,0.003,-0.058,-0.016,-0.998,1,-35.246,-7.788,0.000,24.548,2,0.000000,0.000000,0.000000,0.000,0.000000,0,0,0,0,0
326,7.072671,0,0.035,-0.012,-0.027,6.674,1.757,179.724,-0.560,0.000,0.000,-5.188,-15.000,-30.812,1.156,0.297,9.906,0.003,-0.058,-0.015,-0.998,1,-35.246,-7.788,0.000,24.548,2,0.000000,0.000000,0.000000,0.000,0.000000,0,0,0,0,0
327,7.088781,0,0.074,0.035,0.012,6.674,1.749,179.724,-0.560,0.000,0.336,-3.688,-14.688,-30.125,1.164,0.297,9.906,0.003,-0.058,-0.015,-0.998,1,-42.611,-8.563,0.000,24.548,2,0.000000,0.000000,0.000000,0.000,0.000000,0,0,0,0,0
328,7.100781,0,0.027,0.035,-0.027,6.674,1.735,179.723,-0.560,0.112,0.112,-5.500,-13.875,-28.625,1.164,0.297,9.906,0.003,-0.058,-0.015,-0.998,1,-38.402,-8.129,0.000,24.548,2,0.000000,0.000000,0.000000,0.000,0.000000,0,0,0,0,0
329,7.126677,0,-0.012,-0.004,0.012,6.674,1.728,179.715,-0.448,0.000,0.224,-3.500,-15.812,-30.750,1.164,0.297,9.906,0.003,-0.058,-0.015,-0.998,1,-42.611,-8.563,0.000,24.548,2,0.000000,0.000000,0.000000,0.000,0.000000,0,0,0,0,0
330,7.155678,0,-0.051,-0.004,-0.027,6.674,1.721,179.715,-0.224,-0.112,0.224,-4.688,-16.500,-29.688,1.164,0.297,9.906,0.003,-0.058,-0.015,-0.998,1,-38.402,-8.129,0.000,24.548,2,0.000000,0.000000,0.000000,0.000,0.000000,0,0,0,0,0
331,7.171782,0,-0.051,-0.004,-0.027,6.674,1.721,179.715,0.000,0.000,0.000,-3.000,-15.000,-29.000,1.164,0.297,9.906,0.003,-0.058,-0.015,-0.998,1,-42.611,-8.563,0.000,24.548,2,0.000000,0.000000,0.000000,0.000,0.000000,0,0,0,0,0
332,7.195678,0,-0.043,-0.012,-0.027,6.674,1.721,179.715,0.560,0.000,0.000,-4.688,-16.062,-30.250,1.164,0.305,9.906,0.003,-0.058,-0.015,-0.998,1,-35.246,-7.788,0.000,24.548,2,0.000000,0.000000,0.000000,0.000,0.000000,0,0,0,0,0
333,7.207781,0,0.035,-0.012,0.012,6.674,1.742,179.716,0.895,0.000,-0.112,-2.188,-14.688,-29.500,1.156,0.305,9.906,0.003,-0.058,-0.015,-0.998,1,-42.611,-8.563,0.000,24.548,2,0.000000,0.000000,0.000000,0.000,0.000000,0,0,0,0,0
334,7.231683,0,0.035,-0.020,0.012,6.674,1.749,179.717,0.895,0.000,-0.112,-2.750,-16.375,-29.875,1.156,0.305,9.906,0.003,-0.058,-0.015,-0.998,1,-35.246,-7.788,0.000,24.548,2,0.000000,0.000000,0.000000,0.000,0.000000,0,0,0,0,0
335,7.243781,0,0.074,-0.012,-0.027,6.674,1.770,179.718,0.783,0.000,-0.112,-3.625,-16.062,-29.062,1.156,0.305,9.906,0.003,-0.058,-0.016,-0.998,1,-35.246,-7.788,0.000,24.548,2,0.000000,0.000000,0.000000,0.000,0.000000,0,0,0,0,0
336,7.271672,0,0.035,0.027,0.051,6.674,1.777,179.718,0.895,0.112,-0.112,-4.875,-15.000,-29.625,1.156,0.305,9.906,0.003,-0.058,-0.016,-0.998,1,-35.246,-7.788,0.000,24.548,2,0.000000,0.000000,0.000000,0.000,0.000000,0,0,0,0,0
337,7.283782,0,0.066,0.020,-0.027,6.674,1.806,179.727,0.560,0.000,-0.112,-4.875,-15.688,-28.750,1.164,0.312,9.906,0.003,-0.058,-0.016,-0.998,1,-32.090,-7.431,0.000,24.548,2,0.000000,0.000000,0.000000,0.000,0.000000,0,0,0,0,0
338,7.311671,0,-0.012,-0.020,-0.027,6.674,1.806,179.727,0.336,-0.112,0.000,-5.625,-15.062,-30.375,1.164,0.312,9.906,0.003,-0.058,-0.016,-0.998,1,-35.246,-7.788,0.000,24.548,2,0.000000,0.000000,0.000000,0.000,0.000000,0,0,0,0,0
339,7.323781,0,-0.012,0.020,-0.027,6.674,1.812,179.720,-0.112,0.000,0.000,-4.250,-13.812,-29.562,1.164,0.312,9.906,0.003,-0.058,-0.016,-0.998,1,-35.246,-7.788,0.000,24.548,2,0.000000,0.000000,0.000000,0.000,0.000000,0,0,0,0,0
340,7.346678,0,-0.051,0.027,0.012,6.674,1.805,179.720,-0.448,0.112,0.112,-4.750,-16.250,-29.375,1.164,0.305,9.906,0.003,-0.058,-0.016,-0.998,1,-38.402,-8.129,0.000,24.548,2,0.000000,0.000000,0.000000,0.000,0.000000,0,0,0,0,0
341,7.365677,0,-0.051,0.027,-0.027,6.674,1.798,179.719,-0.560,0.000,-0.112,-3.562,-13.750,-28.812,1.164,0.305,9.906,0.003,-0.058,-0.016,-0.998,1,-38.402,-8.129,0.000,24.548,2,0.000000,0.000000,0.000000,0.000,0.000000,0,0,0,0,0
342,7.386676,0,-0.012,0.027,-0.027,6.674,1.785,179.726,-0.560,0.112,-0.224,-4.375,-16.312,-28.938,1.164,0.305,9.906,0.003,-0.058,-0.016,-0.998,1,-42.611,-8.563,0.000,24.548,2,0.000000,0.000000,0.000000,0.000,0.000000,0,0,0,0,0
343,7.425678,0,-0.012,-0.020,0.012,6.674,1.764,179.731,-0.671,0.112,-0.112,-3.500,-14.312,-29.062,1.164,0.312,9.898,0.003,-0.058,-0.016,-0.998,1,-38.402,-8.129,0.000,24.548,2,0.000000,0.000000,0.000000,0.000,0.000000,0,0,0,0,0
344,7.437781,0,0.027,-0.012,0.012,6.674,1.750,179.738,-0.560,-0.112,-0.224,-4.625,-14.250,-28.625,1.164,0.305,9.906,0.003,-0.058,-0.015,-0.998,1,-35.246,-7.788,0.000,24.548,2,0.000000,0.000000,0.000000,0.000,0.000000,0,0,0,0,0
345,7.466678,0,-0.012,-0.051,-0.027,6.674,1.743,179.737,-0.224,-0.112,-0.112,-4.375,-15.062,-30.812,1.164,0.305,9.906,0.003,-0.058,-0.015,-0.998,1,-38.402,-8.129,0.000,24.548,2,0.000000,0.000000,0.000000,0.000,0.000000,0,0,0,0,0
346,7.478781,0,-0.012,-0.051,-0.027,6.681,1.744,179.744,0.448,0.000,0.000,-2.625,-13.750,-30.812,1.164,0.305,9.906,0.003,-0.058,-0.015,-0.998,1,-38.402,-8.129,0.000,24.548,2,0.000000,0.000000,0.000000,0.000,0.000000,0,0,0,0,0
347,7.505675,0,-0.004,-0.059,-0.027,6.681,1.751,179.745,0.336,-0.112,-0.224,-2.375,-16.188,-29.125,1.156,0.305,9.906,0.003,-0.058,-0.015,-0.998,1,-35.246,-7.788,0.000,24.548,2,0.000000,0.000000,0.000000,0.000,0.000000,0,0,0,0,0
348,7.526677,0,0.035,-0.051,0.012,6.681,1.772,179.746,0.895,0.000,-0.112,-2.125,-15.875,-27.625,1.156,0.305,9.906,0.003,-0.058,-0.016,-0.998,1,-38.402,-8.129,0.000,24.548,2,0.000000,0.000000,0.000000,0.000,0.000000,0,0,0,0,0
349,7.545676,0,0.027,-0.012,0.012,6.674,1.785,179.740,0.783,0.224,0.000,-4.125,-14.875,-28.938,1.156,0.305,9.906,0.003,-0.058,-0.016,-0.998,1,-38.402,-8.129,0.000,24.548,2,0.000000,0.000000,0.000000,0.000,0.000000,0,0,0,0,0
350,7.561781,0,0.027,-0.020,-0.027,6.674,1.800,179.741,0.448,0.000,0.112,-2.938,-14.875,-29.812,1.164,0.312,9.906,0.003,-0.058,-0.016,-0.998,1,-35.246,-7.788,0.000,24.548,2,0.000000,0.000000,0.000000,0.000,0.000000,0,0,0,0,0
351,7.585685,0,0.027,0.020,0.012,6.674,1.814,179.741,0.336,0.000,0.112,-4.812,-15.562,-29.500,1.164,0.312,9.906,0.003,-0.058,-0.016,-0.998,1,-38.402,-8.129,0.000,24.548,2,0.000000,0.000000,0.000000,0.000,0.000000,0,0,0,0,0
352,7.605678,0,0.027,0.020,0.012,6.674,1.813,179.734,-0.224,-0.112,0.224,-2.562,-14.562,-29.938,1.164,0.312,9.906,0.003,-0.058,-0.016,-0.998,1,-38.402,-8.129,0.000,24.548,2,0.000000,0.000000,0.000000,0.000,0.000000,0,0,0,0,0
353,7.632672,0,-0.012,0.027,-0.027,6.681,1.813,179.734,-0.336,0.000,0.000,-4.812,-16.000,-29.062,1.164,0.312,9.906,0.003,-0.058,-0.016,-0.998,1,-38.402,-8.129,0.000,24.548,2,0.000000,0.000000,0.000000,0.000,0.000000,0,0,0,0,0
354,7.648781,0,-0.012,0.027,-0.066,6.681,1.799,179.727,-0.895,-0.112,0.000,-4.250,-17.312,-28.812,1.164,0.305,9.906,0.003,-0.058,-0.016,-0.998,1,-42.611,-8.563,0.000,24.548,2,0.000000,0.000000,0.000000,0.000,0.000000,0,0,0,0,0
355,7.665675,0,-0.012,-0.012,0.012,6.681,1.785,179.726,0.000,0.000,0.000,-3.438,-17.312,-29.312,1.164,0.305,9.906,0.003,-0.058,-0.016,-0.998,1,-35.246,-7.788,0.000,24.548,2,0.000000,0.000000,0.000000,0.000,0.000000,0,0,0,0,0
356,7.685677,0,-0.051,0.027,-0.027,6.681,1.785,179.726,0.000,0.000,0.000,-3.188,-16.375,-29.438,1.164,0.305,9.906,0.003,-0.058,-0.016,-0.998,1,-38.402,-8.129,0.000,24.548,2,0.000000,0.000000,0.000000,0.000,0.000000,0,0,0,0,0
357,7.705677,0,-0.012,0.027,0.012,6.681,1.785,179.726,0.000,0.000,0.000,-4.375,-16.562,-27.750,1.164,0.305,9.906,0.003,-0.058,-0.016,-0.998,1,-35.246,-7.788,0.000,24.548,2,0.000000,0.000000,0.000000,0.000,0.000000,0,0,0,0,0
358,7.717781,0,-0.012,0.027,0.012,6.681,1.785,179.726,0.000,0.000,0.000,-5.250,-15.750,-28.250,1.164,0.305,9.906,0.003,-0.058,-0.016,-0.998,1,-35.246,-7.788,0.000,24.548,2,0.000000,0.000000,0.000000,0.000,0.000000,0,0,0,0,0
359,7.733781,0,0.027,-0.012,0.012,6.681,1.785,179.726,0.000,0.000,0.000,-3.625,-15.500,-30.812,1.164,0.305,9.906,0.003,-0.058,-0.016,-0.998,1,-42.611,-8.563,0.000,24.548,2,0.000000,0.000000,0.000000,0.000,0.000000,0,0,0,0,0
360,7.758672,0,-0.012,-0.012,0.012,6.681,1.785,179.726,0.000,0.000,0.000,-4.250,-16.500,-29.750,1.164,0.305,9.906,0.003,-0.058,-0.016,-0.998,1,-38.402,-8.129,0.000,24.548,2,0.000000,0.000000,0.000000,0.000,0.000000,0,0,0,0,0
361,7.774781,0,-0.012,-0.051,-0.027,6.681,1.785,179.726,0.000,0.000,0.000,-2.062,-17.875,-30.375,1.164,0.305,9.906,0.003,-0.058,-0.016,-0.998,1,-35.246,-7.788,0.000,24.548,2,0.000000,0.000000,0.000000,0.000,0.000000,0,0,0,0,0
362,7.794677,0,0.027,-0.012,0.012,6.681,1.785,179.726,0.000,0.000,0.000,-4.312,-13.562,-29.188,1.164,0.305,9.906,0.003,-0.058,-0.016,-0.998,1,-38.402,-8.129,0.000,24.548,2,0.000000,0.000000,0.000000,0.000,0.000000,0,0,0,0,0
363,7.810781,0,0.027,-0.051,-0.027,6.681,1.785,179.726,0.000,0.000,0.000,-1.688,-15.438,-29.000,1.164,0.305,9.906,0.003,-0.058,-0.016,-0.998,1,-38.402,-8.129,0.000,24.548,2,0.000000,0.000000,0.000000,0.000,0.000000,0,0,0,0,0
364,7.834680,0,0.027,-0.051,-0.027,6.681,1.785,179.726,0.000,0.000,0.000,-2.438,-15.812,-29.688,1.164,0.305,9.906,0.003,-0.058,-0.016,-0.998,1,-35.246,-7.788,0.000,24.548,2,0.000000,0.000000,0.000000,0.000,0.000000,0,0,0,0,0
365,7.855677,0,-0.012,0.027,-0.027,6.681,1.785,179.726,0.000,0.000,0.000,-3.375,-14.812,-29.750,1.164,0.305,9.906,0.003,-0.058,-0.016,-0.998,1,-38.402,-8.129,0.000,24.548,2,0.000000,0.000000,0.000000,0.000,0.000000,0,0,0,0,0
366,7.874678,0,-0.012,0.027,0.012,6.681,1.785,179.726,0.000,0.000,0.000,-5.250,-15.250,-29.562,1.164,0.305,9.906,0.003,-0.058,-0.016,-0.998,1,-35.246,-7.788,0.000,24.548,2,0.000000,0.000000,0.000000,0.000,0.000000,0,0,0,0,0
367,7.896682,0,-0.051,-0.012,0.012,6.688,1.778,179.726,0.000,0.000,0.000,-2.125,-14.875,-30.250,1.164,0.305,9.906,0.003,-0.058,-0.016,-0.998,1,-42.611,-8.563,0.000,24.548,2,0.000000,0.000000,0.000000,0.000,0.000000,0,0,0,0,0
368,7.914677,0,-0.012,0.027,-0.027,6.688,1.778,179.726,0.000,0.000,0.000,-5.750,-14.562,-29.688,1.164,0.305,9.906,0.003,-0.058,-0.016,-0.998,1,-38.402,-8.129,0.000,24.548,2,0.000000,0.000000,0.000000,0.000,0.000000,0,0,0,0,0
369,7.934677,0,0.027,-0.012,-0.020,6.688,1.778,179.726,0.000,0.000,0.000,-2.000,-16.188,-29.562,1.164,0.305,9.898,0.003,-0.058,-0.016,-0.998,1,-38.402,-8.129,0.000,24.548,2,0.000000,0.000000,0.000000,0.000,0.000000,0,0,0,0,0
370,7.950781,0,-0.012,-0.012,0.020,6.688,1.778,179.726,0.000,0.000,0.000,-2.812,-12.750,-29.875,1.164,0.305,9.898,0.003,-0.058,-0.016,-0.998,1,-38.402,-8.129,0.000,24.548,2,0.000000,0.000000,0.000000,0.000,0.000000,0,0,0,0,0
371,7.975677,0,0.027,-0.012,0.020,6.688,1.778,179.726,0.000,0.000,0.000,-3.062,-13.938,-29.562,1.164,0.305,9.898,0.003,-0.058,-0.016,-0.998,1,-35.246,-7.788,0.000,24.548,2,0.000000,0.000000,0.000000,0.000,0.000000,0,0,0,0,0
372,7.993781,0,0.066,0.027,0.020,6.688,1.778,179.726,0.000,0.000,0.000,-4.312,-16.750,-28.562,1.164,0.305,9.898,0.003,-0.058,-0.016,-0.998,1,-38.402,-8.129,0.000,24.548,2,0.000000,0.000000,0.000000,0.000,0.000000,0,0,0,0,0
373,8.014677,0,-0.012,0.027,0.020,6.688,1.778,179.726,0.000,0.000,0.000,-2.000,-15.812,-29.688,1.164,0.305,9.898,0.003,-0.058,-0.016,-0.998,1,-35.246,-7.788,0.000,24.548,2,0.000000,0.000000,0.000000,0.000,0.000000,0,0,0,0,0
374,8.026781,0,-0.012,0.027,-0.020,6.688,1.778,179.726,0.000,0.000,0.000,-4.812,-12.938,-29.312,1.164,0.305,9.898,0.003,-0.058,-0.016,-0.998,1,-38.402,-8.129,0.000,24.548,2,0.000000,0.000000,0.000000,0.000,0.000000,0,0,0,0,0
375,8.054677,0,-0.051,0.027,0.020,6.688,1.778,179.726,0.000,0.000,0.000,-2.875,-15.438,-30.125,1.164,0.305,9.898,0.003,-0.058,-0.016,-0.998,1,-38.402,-8.129,0.000,24.548,2,0.000000,0.000000,0.000000,0.000,0.000000,0,0,0,0,0
376,8.066782,0,-0.012,-0.012,0.020,6.688,1.778,179.726,0.000,0.000,0.000,-2.500,-12.125,-30.000,1.164,0.305,9.898,0.003,-0.058,-0.016,-0.998,1,-38.402,-8.129,0.000,24.548,2,0.000000,0.000000,0.000000,0.000,0.000000,0,0,0,0,0
377,8.094678,0,-0.012,-0.012,-0.020,6.688,1.778,179.726,0.000,0.000,0.000,-3.812,-17.312,-28.812,1.164,0.305,9.898,0.003,-0.058,-0.016,-0.998,1,-38.402,-8.129,0.000,24.548,2,0.000000,0.000000,0.000000,0.000,0.000000,0,0,0,0,0
378,8.106781,0,-0.012,-0.012,-0.020,6.688,1.778,179.726,0.000,0.000,0.000,-5.312,-17.688,-29.438,1.164,0.305,9.898,0.003,-0.058,-0.016,-0.998,1,-38.402,-8.129,0.000,24.548,2,0.000000,0.000000,0.000000,0.000,0.000000,0,0,0,0,0
379,8.134677,0,0.027,-0.012,0.012,6.688,1.778,179.726,0.000,0.000,0.000,-3.062,-14.438,-28.750,1.164,0.305,9.906,0.003,-0.058,-0.016,-0.998,1,-38.402,-8.129,0.000,24.548,2,0.000000,0.000000,0.000000,0.000,0.000000,0,0,0,0,0
380,8.146781,0,0.027,-0.012,-0.027,6.688,1.778,179.726,0.000,0.000,0.000,-1.562,-16.625,-29.125,1.164,0.305,9.906,0.003,-0.058,-0.016,-0.998,1,-38.402,-8.129,0.000,24.548,2,0.000000,0.000000,0.000000,0.000,0.000000,0,0,0,0,0
381,8.173677,0,0.027,-0.012,0.012,6.688,1.778,179.726,0.000,0.000,0.000,-4.000,-13.312,-29.312,1.164,0.305,9.906,0.003,-0.058,-0.016,-0.998,1,-38.402,-8.129,0.000,24.548,2,0.000000,0.000000,0.000000,0.000,0.000000,0,0,0,0,0
382,8.185782,0,0.027,-0.012,0.012,6.688,1.778,179.726,0.000,0.000,0.000,-5.188,-15.438,-30.375,1.164,0.305,9.906,0.003,-0.058,-0.016,-0.998,1,-38.402,-8.129,0.000,24.548,2,0.000000,0.000000,0.000000,0.000,0.000000,0,0,0,0,0
383,8.214677,0,-0.012,-0.051,0.012,6.688,1.778,179.726,0.000,0.000,0.000,-2.812,-15.688,-30.062,1.164,0.305,9.906,0.003,-0.058,-0.016,-0.998,1,-42.611,-8.563,0.000,24.548,2,0.000000,0.000000,0.000000,0.000,0.000000,0,0,0,0,0
384,8.230781,0,-0.012,-0.012,-0.027,6.688,1.778,179.726,0.000,0.000,0.000,-3.250,-15.438,-29.688,1.164,0.305,9.906,0.003,-0.058,-0.016,-0.998,1,-38.402,-8.129,0.000,24.548,2,0.000000,0.000000,0.000000,0.000,0.000000,0,0,0,0,0
385,8.254676,0,-0.012,-0.012,0.012,6.688,1.778,179.726,0.000,0.000,0.000,-4.812,-15.625,-29.125,1.164,0.305,9.906,0.003,-0.058,-0.016,-0.998,1,-42.611,-8.563,0.000,24.548,2,0.000000,0.000000,0.000000,0.000,0.000000,0,0,0,0,0
386,8.274676,0,-0.012,-0.012,0.012,6.688,1.771,179.725,0.000,0.000,0.000,-4.500,-15.500,-28.812,1.164,0.305,9.906,0.003,-0.058,-0.016,-0.998,1,-38.402,-8.129,0.000,24.548,2,0.000000,0.000000,0.000000,0.000,0.000000,0,0,0,0,0
387,8.294682,0,-0.012,0.027,-0.027,6.688,1.771,179.725,0.000,0.000,0.000,-5.562,-13.062,-29.625,1.164,0.305,9.906,0.003,-0.058,-0.016,-0.998,1,-42.611,-8.563,0.000,24.548,2,0.000000,0.000000,0.000000,0.000,0.000000,0,0,0,0,0
388,8.332671,0,-0.012,0.027,0.012,6.688,1.771,179.725,0.000,0.000,0.000,-2.688,-17.062,-29.375,1.164,0.305,9.906,0.003,-0.058,-0.016,-0.998,1,-38.402,-8.129,0.000,24.548,2,0.000000,0.000000,0.000000,0.000,0.000000,0,0,0,0,0
389,8.364682,0,-0.012,0.027,-0.027,6.695,1.771,179.725,0.000,0.000,0.000,-4.938,-18.188,-28.562,1.164,0.305,9.906,0.003,-0.058,-0.016,-0.998,1,-38.402,-8.129,0.000,24.548,2,0.000000,0.000000,0.000000,0.000,0.000000,0,0,0,0,0
390,8.381675,0,-0.012,0.020,-0.027,6.695,1.771,179.725,0.000,0.000,0.000,-4.750,-15.875,-29.500,1.164,0.312,9.906,0.003,-0.058,-0.016,-0.998,1,-42.611,-8.563,0.000,24.548,2,0.000000,0.000000,0.000000,0.000,0.000000,0,0,0,0,0
391,8.404677,0,-0.012,-0.020,0.012,6.695,1.771,179.725,0.000,0.000,0.000,-4.625,-16.750,-30.062,1.164,0.312,9.906,0.003,-0.058,-0.016,-0.998,1,-38.402,-8.129,0.000,24.548,2,0.000000,0.000000,0.000000,0.000,0.000000,0,0,0,0,0
392,8.416782,0,-0.012,-0.020,-0.027,6.695,1.771,179.725,0.000,0.000,0.000,-2.750,-16.812,-29.000,1.164,0.312,9.906,0.003,-0.058,-0.016,-0.998,1,-42.611,-8.563,0.000,24.548,2,0.000000,0.000000,0.000000,0.000,0.000000,0,0,0,0,0
393,8.444678,0,-0.012,-0.020,0.012,6.695,1.778,179.726,0.000,0.000,0.000,-2.875,-15.438,-30.125,1.164,0.312,9.906,0.003,-0.058,-0.016,-0.998,1,-38.402,-8.129,0.000,24.548,2,0.000000,0.000000,0.000000,0.000,0.000000,0,0,0,0,0
394,8.469678,0,-0.012,-0.020,0.012,6.695,1.778,179.726,0.000,0.000,0.000,-5.625,-15.938,-28.625,1.164,0.312,9.906,0.003,-0.058,-0.016,-0.998,1,-38.402,-8.129,0.000,24.548,2,0.000000,0.000000,0.000000,0.000,0.000000,0,0,0,0,0
395,8.485781,0,-0.012,-0.059,-0.027,6.695,1.778,179.726,0.000,0.000,0.000,-3.438,-17.250,-29.688,1.164,0.312,9.906,0.003,-0.058,-0.016,-0.998,1,-38.402,-8.129,0.000,24.548,2,0.000000,0.000000,0.000000,0.000,0.000000,0,0,0,0,0
396,8.497781,0,-0.012,-0.059,0.012,6.695,1.778,179.726,0.000,0.000,0.000,-4.500,-15.062,-29.250,1.164,0.312,9.906,0.003,-0.058,-0.016,-0.998,1,-38.402,-8.129,0.000,24.548,2,0.000000,0.000000,0.000000,0.000,0.000000,0,0,0,0,0
397,8.523677,0,0.027,-0.012,0.012,6.695,1.778,179.726,0.000,0.000,0.000,-1.125,-16.125,-30.438,1.164,0.305,9.906,0.003,-0.058,-0.016,-0.998,1,-38.402,-8.129,0.000,24.548,2,0.000000,0.000000,0.000000,0.000,0.000000,0,0,0,0,0
398,8.544679,0,-0.012,-0.051,0.012,6.695,1.778,179.726,0.000,0.000,0.000,-4.312,-14.188,-27.500,1.164,0.305,9.906,0.003,-0.058,-0.016,-0.998,1,-38.402,-8.129,0.000,24.548,2,0.000000,0.000000,0.000000,0.000,0.000000,0,0,0,0,0
399,8.563678,0,-0.012,-0.012,0.051,6.695,1.778,179.726,0.000,0.000,0.000,-2.625,-14.188,-30.375,1.164,0.305,9.906,0.003,-0.058,-0.016,-0.998,1,-42.611,-8.563,0.000,24.548,2,0.000000,0.000000,0.000000,0.000,0.000000,0,0,0,0,0
400,8.579781,0,0.066,-0.051,0.012,6.695,1.778,179.726,0.000,0.000,0.000,-4.812,-15.562,-29.938,1.164,0.305,9.906,0.003,-0.058,-0.016,-0.998,1,-35.246,-7.788,0.000,24.548,2,0.000000,0.000000,0.000000,0.000,0.000000,0,0,0,0,0
401,8.603677,0,-0.012,-0.012,0.012,6.695,1.778,179.726,0.000,0.000,0.000,-3.250,-14.938,-31.000,1.164,0.305,9.906,0.003,-0.058,-0.016,-0.998,1,-32.090,-7.431,0.000,24.548,2,0.000000,0.000000,0.000000,0.000,0.000000,0,0,0,0,0
402,8.619781,0,-0.012,-0.012,-0.027,6.695,1.778,179.726,0.000,0.000,0.000,-3.688,-15.000,-30.125,1.164,0.305,9.906,0.003,-0.058,-0.016,-0.998,1,-32.090,-7.431,0.000,24.548,2,0.000000,0.000000,0.000000,0.000,0.000000,0,0,0,0,0
403,8.643677,0,0.027,-0.004,0.012,6.695,1.778,179.726,0.000,0.000,0.000,-4.375,-15.875,-29.938,1.164,0.297,9.906,0.003,-0.058,-0.016,-0.998,1,-32.090,-7.431,0.000,24.548,2,0.000000,0.000000,0.000000,0.000,0.000000,0,0,0,0,0
404,8.659781,0,-0.012,-0.004,0.051,6.695,1.771,179.725,0.000,0.000,0.000,-4.750,-16.312,-29.062,1.164,0.297,9.906,0.003,-0.058,-0.016,-0.998,1,-35.246,-7.788,0.000,24.548,2,0.000000,0.000000,0.000000,0.000,0.000000,0,0,0,0,0
405,8.683677,0,-0.012,0.035,-0.027,6.695,1.771,179.725,0.000,0.000,0.000,-2.312,-16.438,-29.562,1.164,0.297,9.906,0.003,-0.058,-0.016,-0.998,1,-38.402,-8.129,0.000,24.548,2,0.000000,0.000000,0.000000,0.000,0.000000,0,0,0,0,0
406,8.695782,0,-0.012,-0.004,0.012,6.695,1.771,179.725,0.000,0.000,0.000,-1.812,-14.000,-30.062,1.164,0.297,9.906,0.003,-0.058,-0.016,-0.998,1,-38.402,-8.129,0.000,24.548,2,0.000000,0.000000,0.000000,0.000,0.000000,0,0,0,0,0
407,8.723677,0,-0.012,-0.004,-0.027,6.695,1.771,179.725,0.000,0.000,0.000,-4.312,-16.312,-29.000,1.164,0.297,9.906,0.003,-0.058,-0.016,-0.998,1,-38.402,-8.129,0.000,24.548,2,0.000000,0.000000,0.000000,0.000,0.000000,0,0,0,0,0
408,8.749674,0,-0.012,-0.004,-0.027,6.695,1.771,179.725,0.000,0.000,0.000,-2.250,-17.062,-29.375,1.164,0.297,9.906,0.003,-0.058,-0.016,-0.998,1,-35.246,-7.788,0.000,24.548,2,0.000000,0.000000,0.000000,0.000,0.000000,0,0,0,0,0
409,8.765782,0,-0.012,-0.012,-0.027,6.695,1.764,179.725,0.000,0.000,0.000,-3.500,-17.062,-28.875,1.164,0.305,9.906,0.003,-0.058,-0.016,-0.998,1,-38.402,-8.129,0.000,24.548,2,0.000000,0.000000,0.000000,0.000,0.000000,0,0,0,0,0
410,8.793676,0,-0.012,-0.012,0.012,6.695,1.764,179.725,0.000,0.000,0.000,-3.875,-17.062,-28.500,1.164,0.305,9.906,0.003,-0.058,-0.016,-0.998,1,-38.402,-8.129,0.000,24.548,2,0.000000,0.000000,0.000000,0.000,0.000000,0,0,0,0,0
411,8.812677,0,0.027,-0.012,0.012,6.695,1.764,179.725,0.000,0.000,0.000,-4.188,-17.625,-28.812,1.164,0.305,9.906,0.003,-0.058,-0.016,-0.998,1,-38.402,-8.129,0.000,24.548,2,0.000000,0.000000,0.000000,0.000,0.000000,0,0,0,0,0
412,8.824782,0,-0.012,-0.012,-0.027,6.695,1.764,179.725,0.000,0.000,0.000,-2.188,-13.812,-30.938,1.164,0.305,9.906,0.003,-0.058,-0.016,-0.998,1,-38.402,-8.129,0.000,24.548,2,0.000000,0.000000,0.000000,0.000,0.000000,0,0,0,0,0
413,8.853677,0,-0.012,-0.012,0.012,6.695,1.764,179.725,0.000,0.000,0.000,-2.875,-18.875,-29.000,1.164,0.305,9.906,0.003,-0.058,-0.016,-0.998,1,-38.402,-8.129,0.000,24.548,2,0.000000,0.000000,0.000000,0.000,0.000000,0,0,0,0,0
414,8.877670,0,-0.012,-0.012,-0.027,6.695,1.764,179.725,0.000,0.000,0.000,-3.375,-14.938,-29.000,1.164,0.305,9.906,0.003,-0.058,-0.016,-0.998,1,-38.402,-8.129,0.000,24.548,2,0.000000,0.000000,0.000000,0.000,0.000000,0,0,0,0,0
415,8.889781,0,-0.012,-0.012,-0.027,6.695,1.764,179.725,0.000,0.000,0.000,-1.438,-16.688,-30.312,1.164,0.305,9.906,0.003,-0.058,-0.016,-0.998,1,-38.402,-8.129,0.000,24.548,2,0.000000,0.000000,0.000000,0.000,0.000000,0,0,0,0,0
416,8.905781,0,-0.012,-0.012,0.012,6.695,1.764,179.725,0.000,0.000,0.000,-4.062,-15.438,-29.188,1.164,0.305,9.906,0.003,-0.058,-0.016,-0.998,1,-42.611,-8.563,0.000,24.548,2,0.000000,0.000000,0.000000,0.000,0.000000,0,0,0,0,0
417,8.959675,0,0.027,-0.051,0.012,6.695,1.764,179.725,0.000,0.000,0.000,-2.625,-14.375,-29.125,1.164,0.305,9.906,0.003,-0.058,-0.016,-0.998,1,-38.402,-8.129,0.000,24.548,2,0.000000,0.000000,0.000000,0.000,0.000000,0,0,0,0,0
418,8.975781,0,-0.012,-0.012,-0.027,6.695,1.764,179.725,0.000,0.000,0.000,-3.750,-15.125,-29.375,1.164,0.305,9.906,0.003,-0.058,-0.016,-0.998,1,-38.402,-8.129,0.000,24.548,2,0.000000,0.000000,0.000000,0.000,0.000000,0,0,0,0,0
419,9.002676,0,0.027,0.027,-0.027,6.695,1.764,179.725,0.000,0.000,0.000,-3.500,-13.938,-29.562,1.164,0.305,9.906,0.003,-0.058,-0.016,-0.998,1,-38.402,-8.129,0.000,24.548,2,0.000000,0.000000,0.000000,0.000,0.000000,0,0,0,0,0
420,9.018781,0,0.027,-0.012,-0.027,6.695,1.764,179.725,0.000,0.000,0.000,-3.750,-18.125,-27.875,1.164,0.305,9.906,0.003,-0.058,-0.016,-0.998,1,-38.402,-8.129,0.000,24.548,2,0.000000,0.000000,0.000000,0.000,0.000000,0,0,0,0,0
421,9.033677,0,-0.012,-0.012,-0.027,6.695,1.764,179.725,0.000,0.000,0.000,-3.750,-18.125,-27.875,1.164,0.305,9.906,0.003,-0.058,-0.016,-0.998,1,-35.246,-7.788,0.000,24.548,2,0.000000,0.000000,0.000000,0.000,0.000000,0,0,0,0,0
422,9.049781,0,-0.012,-0.012,-0.027,6.695,1.764,179.725,0.000,0.000,0.000,-5.312,-13.188,-32.500,1.164,0.305,9.906,0.003,-0.058,-0.016,-0.998,1,-38.402,-8.129,0.000,24.548,2,0.000000,0.000000,0.000000,0.000,0.000000,0,0,0,0,0
423,9.079672,0,-0.012,-0.012,0.012,6.695,1.764,179.725,0.000,0.000,0.000,-2.688,-13.500,-30.562,1.164,0.305,9.906,0.003,-0.058,-0.016,-0.998,1,-42.611,-8.563,0.000,24.548,2,0.000000,0.000000,0.000000,0.000,0.000000,0,0,0,0,0
424,9.091781,0,-0.012,-0.012,-0.027,6.695,1.764,179.725,0.000,0.000,0.000,-2.812,-15.688,-30.500,1.164,0.305,9.906,0.003,-0.058,-0.016,-0.998,1,-38.402,-8.129,0.000,24.548,2,0.000000,0.000000,0.000000,0.000,0.000000,0,0,0,0,0
425,9.119671,0,-0.012,-0.004,0.012,6.695,1.764,179.725,0.000,0.000,0.000,-4.188,-17.188,-29.625,1.164,0.297,9.906,0.003,-0.058,-0.016,-0.998,1,-42.611,-8.563,0.000,24.548,2,0.000000,0.000000,0.000000,0.000,0.000000,0,0,0,0,0
426,9.133677,0,-0.012,0.035,-0.027,6.695,1.764,179.725,0.000,0.000,0.000,-3.750,-15.250,-28.875,1.164,0.297,9.906,0.003,-0.058,-0.016,-0.998,1,-38.402,-8.129,0.000,24.548,2,0.000000,0.000000,0.000000,0.000,0.000000,0,0,0,0,0
427,9.153676,0,-0.012,-0.012,0.012,6.695,1.764,179.725,0.000,0.000,0.000,-2.625,-13.938,-30.062,1.164,0.305,9.906,0.003,-0.058,-0.016,-0.998,1,-38.402,-8.129,0.000,24.548,2,0.000000,0.000000,0.000000,0.000,0.000000,0,0,0,0,0
428,9.173677,0,0.027,0.027,-0.027,6.695,1.764,179.725,0.000,0.000,0.000,-4.875,-15.438,-28.750,1.164,0.305,9.906,0.003,-0.058,-0.016,-0.998,1,-42.611,-8.563,0.000,24.548,2,0.000000,0.000000,0.000000,0.000,0.000000,0,0,0,0,0
429,9.193678,0,0.027,0.027,0.012,6.695,1.764,179.725,0.000,0.000,0.000,-3.500,-17.000,-29.375,1.164,0.305,9.906,0.003,-0.058,-0.016,-0.998,1,-38.402,-8.129,0.000,24.548,2,0.000000,0.000000,0.000000,0.000,0.000000,0,0,0,0,0
430,9.205781,0,0.027,0.027,0.012,6.695,1.764,179.725,0.000,0.000,0.000,-3.750,-17.625,-28.812,1.164,0.305,9.906,0.003,-0.058,-0.016,-0.998,1,-38.402,-8.129,0.000,24.548,2,0.000000,0.000000,0.000000,0.000,0.000000,0,0,0,0,0
431,9.238671,0,-0.012,-0.012,0.012,6.695,1.764,179.725,0.000,0.000,0.000,-2.938,-14.438,-30.312,1.164,0.305,9.906,0.003,-0.058,-0.016,-0.998,1,-38.402,-8.129,0.000,24.548,2,0.000000,0.000000,0.000000,0.000,0.000000,0,0,0,0,0
432,9.254781,0,0.027,-0.051,0.012,6.695,1.764,179.725,0.000,0.000,0.000,-4.000,-16.125,-28.688,1.164,0.305,9.906,0.003,-0.058,-0.016,-0.998,1,-38.402,-8.129,0.000,24.548,2,0.000000,0.000000,0.000000,0.000,0.000000,0,0,0,0,0
433,9.273677,0,-0.012,-0.012,0.012,6.695,1.764,179.725,0.000,0.000,0.000,-3.938,-15.125,-31.312,1.164,0.305,9.906,0.003,-0.058,-0.016,-0.998,1,-38.402,-8.129,0.000,24.548,2,0.000000,0.000000,0.000000,0.000,0.000000,0,0,0,0,0
434,9.293677,0,-0.012,-0.012,0.012,6.695,1.764,179.725,0.000,0.000,0.000,-2.688,-16.750,-29.438,1.164,0.305,9.906,0.003,-0.058,-0.016,-0.998,1,-35.246,-7.788,0.000,24.548,2,0.000000,0.000000,0.000000,0.000,0.000000,0,0,0,0,0
435,9.313677,0,-0.012,-0.012,0.012,6.695,1.764,179.725,0.000,0.000,0.000,-5.625,-15.438,-30.000,1.164,0.305,9.906,0.003,-0.058,-0.016,-0.998,1,-38.402,-8.129,0.000,24.548,2,0.000000,0.000000,0.000000,0.000,0.000000,0,0,0,0,0
436,9.345782,0,0.027,-0.012,-0.027,6.695,1.764,179.725,0.000,0.000,0.000,-2.375,-16.125,-29.625,1.164,0.305,9.906,0.003,-0.058,-0.016,-0.998,1,-38.402,-8.129,0.000,24.548,2,0.000000,0.000000,0.000000,0.000,0.000000,0,0,0,0,0
437,9.362677,0,0.027,-0.012,0.012,6.695,1.764,179.725,0.000,0.000,0.000,-5.438,-16.625,-30.125,1.164,0.305,9.906,0.003,-0.058,-0.016,-0.998,1,-35.246,-7.788,0.000,24.548,2,0.000000,0.000000,0.000000,0.000,0.000000,0,0,0,0,0
438,9.389671,0,-0.020,0.027,0.012,6.695,1.764,179.725,0.000,0.000,0.000,-2.250,-17.188,-29.000,1.172,0.305,9.906,0.003,-0.058,-0.016,-0.998,1,-35.246,-7.788,0.000,24.548,2,0.000000,0.000000,0.000000,0.000,0.000000,0,0,0,0,0
439,9.401780,0,-0.020,0.027,0.012,6.695,1.764,179.725,0.000,0.000,0.000,-3.875,-13.875,-29.625,1.172,0.305,9.906,0.003,-0.058,-0.016,-0.998,1,-35.246,-7.788,0.000,24.548,2,0.000000,0.000000,0.000000,0.000,0.000000,0,0,0,0,0
440,9.432677,0,-0.020,0.027,-0.035,6.702,1.764,179.725,0.000,0.000,0.000,-2.875,-14.625,-31.125,1.172,0.305,9.914,0.003,-0.058,-0.016,-0.998,1,-35.246,-7.788,0.000,24.548,2,0.000000,0.000000,0.000000,0.000,0.000000,0,0,0,0,0
441,9.462677,0,-0.020,-0.051,0.004,6.702,1.764,179.725,0.000,0.000,0.000,-4.500,-15.062,-29.312,1.172,0.305,9.914,0.003,-0.058,-0.016,-0.998,1,-35.246,-7.788,0.000,24.548,2,0.000000,0.000000,0.000000,0.000,0.000000,0,0,0,0,0
442,9.483677,0,-0.012,-0.051,0.004,6.702,1.764,179.725,0.000,0.000,0.000,-3.375,-15.250,-28.938,1.164,0.305,9.914,0.003,-0.058,-0.016,-0.998,1,-38.402,-8.129,0.000,24.548,2,0.000000,0.000000,0.000000,0.000,0.000000,0,0,0,0,0
443,9.503678,0,0.027,-0.012,0.043,6.702,1.764,179.725,0.000,0.000,0.000,-3.625,-15.250,-30.500,1.164,0.305,9.914,0.003,-0.058,-0.016,-0.998,1,-35.246,-7.788,0.000,24.548,2,0.000000,0.000000,0.000000,0.000,0.000000,0,0,0,0,0
444,9.522676,0,0.027,-0.012,0.004,6.702,1.764,179.725,0.000,0.000,0.000,-5.812,-13.875,-30.312,1.164,0.305,9.914,0.003,-0.058,-0.016,-0.998,1,-35.246,-7.788,0.000,24.548,2,0.000000,0.000000,0.000000,0.000,0.000000,0,0,0,0,0
445,9.542704,0,-0.020,0.027,-0.035,6.702,1.764,179.725,0.000,0.000,0.000,-3.062,-13.938,-29.625,1.172,0.305,9.914,0.003,-0.058,-0.016,-0.998,1,-38.402,-8.129,0.000,24.548,2,0.000000,0.000000,0.000000,0.000,0.000000,0,0,0,0,0
446,9.563678,0,-0.020,0.027,-0.035,6.702,1.764,179.725,0.000,0.000,0.000,-3.938,-13.938,-29.250,1.164,0.305,9.914,0.003,-0.058,-0.016,-0.998,1,-35.246,-7.788,0.000,24.548,2,0.000000,0.000000,0.000000,0.000,0.000000,0,0,0,0,0
447,9.586671,0,-0.051,0.027,-0.035,6.702,1.764,179.725,0.000,0.000,0.000,-2.500,-15.250,-29.375,1.164,0.305,9.914,0.003,-0.058,-0.016,-0.998,1,-38.402,-8.129,0.000,24.548,2,0.000000,0.000000,0.000000,0.000,0.000000,0,0,0,0,0
448,9.602678,0,-0.051,0.027,0.004,6.702,1.764,179.725,0.000,0.000,0.000,-2.500,-15.188,-29.812,1.164,0.305,9.914,0.003,-0.058,-0.016,-0.998,1,-38.402,-8.129,0.000,24.548,2,0.000000,0.000000,0.000000,0.000,0.000000,0,0,0,0,0
449,9.627672,0,0.027,0.027,0.004,6.702,1.764,179.725,0.000,0.000,0.000,-3.000,-18.062,-28.750,1.164,0.305,9.914,0.003,-0.058,-0.016,-0.998,1,-35.246,-7.788,0.000,24.548,2,0.000000,0.000000,0.000000,0.000,0.000000,0,0,0,0,0
450,9.643783,0,-0.012,0.027,0.004,6.702,1.764,179.725,0.000,0.000,0.000,-2.188,-17.750,-29.312,1.164,0.305,9.914,0.003,-0.058,-0.016,-0.998,1,-38.402,-8.129,0.000,24.548,2,0.000000,0.000000,0.000000,0.000,0.000000,0,0,0,0,0
451,9.667682,0,-0.012,-0.012,-0.035,6.702,1.750,179.731,-0.783,-0.112,-0.224,-2.625,-14.312,-29.625,1.164,0.305,9.914,0.003,-0.058,-0.015,-0.998,1,-38.402,-8.129,0.000,24.548,2,0.000000,0.000000,0.000000,0.000,0.000000,0,0,0,0,0
452,9.683781,0,0.027,-0.051,-0.035,6.702,1.729,179.730,-0.783,0.000,-0.112,-5.312,-14.625,-29.750,1.164,0.305,9.914,0.003,-0.058,-0.015,-0.998,1,-35.246,-7.788,0.000,24.548,2,0.000000,0.000000,0.000000,0.000,0.000000,0,0,0,0,0
453,9.708671,0,0.027,-0.043,0.051,6.702,1.722,179.736,-0.336,-0.112,0.000,-2.500,-15.125,-30.250,1.164,0.297,9.906,0.003,-0.058,-0.015,-0.998,1,-35.246,-7.788,0.000,24.548,2,0.000000,0.000000,0.000000,0.000,0.000000,0,0,0,0,0
454,9.724781,0,0.027,-0.043,0.012,6.702,1.715,179.736,-0.112,0.112,0.224,-4.500,-14.688,-29.750,1.164,0.297,9.906,0.003,-0.058,-0.015,-0.998,1,-35.246,-7.788,0.000,24.548,2,0.000000,0.000000,0.000000,0.000,0.000000,0,0,0,0,0
455,9.742677,0,0.027,-0.043,0.012,6.702,1.722,179.736,0.224,0.000,0.000,-4.938,-15.125,-28.812,1.164,0.297,9.906,0.003,-0.058,-0.015,-0.998,1,-35.246,-7.788,0.000,24.548,2,0.000000,0.000000,0.000000,0.000,0.000000,0,0,0,0,0
456,9.754781,0,0.027,-0.082,-0.027,6.702,1.729,179.737,0.560,0.000,0.224,-5.625,-12.562,-29.438,1.164,0.297,9.906,0.003,-0.058,-0.015,-0.998,1,-38.402,-8.129,0.000,24.548,2,0.000000,0.000000,0.000000,0.000,0.000000,0,0,0,0,0
457,9.788671,0,-0.020,-0.043,-0.027,6.702,1.736,179.730,0.560,0.000,0.224,-1.938,-16.562,-29.188,1.164,0.297,9.906,0.003,-0.058,-0.015,-0.998,1,-35.246,-7.788,0.000,24.548,2,0.000000,0.000000,0.000000,0.000,0.000000,0,0,0,0,0
458,9.800781,0,0.020,-0.043,-0.027,6.702,1.749,179.724,0.783,0.112,0.448,-2.125,-12.312,-29.250,1.172,0.297,9.906,0.003,-0.058,-0.015,-0.998,1,-35.246,-7.788,0.000,24.548,2,0.000000,0.000000,0.000000,0.000,0.000000,0,0,0,0,0
459,9.830671,0,-0.020,-0.035,0.012,6.702,1.763,179.718,0.895,0.000,0.336,-3.625,-16.062,-29.562,1.172,0.289,9.906,0.003,-0.058,-0.016,-0.998,1,-35.246,-7.788,0.000,24.548,2,0.000000,0.000000,0.000000,0.000,0.000000,0,0,0,0,0
460,9.852678,0,-0.020,0.035,0.004,6.703,1.783,179.705,0.895,0.000,0.336,-1.938,-13.000,-30.750,1.172,0.297,9.906,0.003,-0.058,-0.016,-0.998,1,-35.246,-7.788,0.000,24.548,2,0.000000,0.000000,0.000000,0.000,0.000000,0,0,0,0,0
461,9.868781,0,-0.020,0.035,-0.035,6.703,1.790,179.698,0.336,0.000,0.336,-4.938,-14.625,-29.812,1.172,0.297,9.914,0.004,-0.058,-0.016,-0.998,1,-35.246,-7.788,0.000,24.548,2,0.000000,0.000000,0.000000,0.000,0.000000,0,0,0,0,0
462,9.892677,0,-0.059,0.074,0.004,6.703,1.797,179.692,0.448,0.000,0.336,-4.625,-13.250,-30.875,1.172,0.297,9.914,0.004,-0.058,-0.016,-0.998,1,-35.246,-7.788,0.000,24.548,2,0.000000,0.000000,0.000000,0.000,0.000000,0,0,0,0,0
463,9.918683,0,-0.020,0.113,-0.035,6.703,1.796,179.685,0.000,0.000,0.224,-3.938,-16.000,-29.562,1.172,0.297,9.914,0.004,-0.058,-0.016,-0.998,1,-35.246,-7.788,0.000,24.548,2,0.000000,0.000000,0.000000,0.000,0.000000,0,0,0,0,0
464,9.932677,0,-0.059,0.105,-0.035,6.703,1.796,179.685,-0.112,0.112,0.112,-5.000,-17.438,-29.188,1.172,0.305,9.914,0.004,-0.058,-0.016,-0.998,1,-35.246,-7.788,0.000,24.548,2,0.000000,0.000000,0.000000,0.000,0.000000,0,0,0,0,0
465,9.944781,0,-0.012,0.105,0.004,6.703,1.783,179.691,-0.560,0.112,-0.224,-3.750,-14.812,-29.500,1.164,0.305,9.914,0.004,-0.058,-0.016,-0.998,1,-38.402,-8.129,0.000,24.548,2,0.000000,0.000000,0.000000,0.000,0.000000,0,0,0,0,0
466,9.971678,0,-0.012,0.066,-0.035,6.703,1.776,179.698,-0.783,-0.112,-0.336,-2.250,-17.062,-29.438,1.164,0.312,9.914,0.004,-0.058,-0.016,-0.998,1,-35.246,-7.788,0.000,24.548,2,0.000000,0.000000,0.000000,0.000,0.000000,0,0,0,0,0
467,9.983782,0,-0.012,0.020,-0.027,6.703,1.755,179.703,-1.119,-0.112,-0.560,-3.188,-15.688,-30.062,1.164,0.312,9.906,0.003,-0.058,-0.015,-0.998,1,-32.090,-7.431,0.000,24.548,2,0.000000,0.000000,0.000000,0.000,0.000000,0,0,0,0,0
468,10.011676,0,0.027,-0.020,0.051,6.702,1.742,179.717,-1.007,0.000,-0.671,-4.125,-14.312,-30.312,1.164,0.312,9.906,0.003,-0.058,-0.015,-0.998,1,-35.246,-7.788,0.000,24.548,2,0.000000,0.000000,0.000000,0.000,0.000000,0,0,0,0,0
469,10.023782,0,-0.012,-0.059,0.012,6.702,1.722,179.729,-1.119,0.000,-0.671,-4.625,-18.125,-27.438,1.164,0.312,9.906,0.003,-0.058,-0.015,-0.998,1,-35.246,-7.788,0.000,24.548,2,0.000000,0.000000,0.000000,0.000,0.000000,0,0,0,0,0
470,10.051677,0,0.027,-0.051,0.012,6.709,1.709,179.743,-0.671,-0.112,-0.448,-4.688,-13.875,-29.188,1.164,0.305,9.906,0.003,-0.058,-0.015,-0.998,1,-38.402,-8.129,0.000,24.548,2,0.000000,0.000000,0.000000,0.000,0.000000,0,0,0,0,0
471,10.071677,0,0.027,-0.090,-0.027,6.709,1.695,179.749,-0.448,-0.112,-0.336,-2.125,-14.500,-30.375,1.164,0.305,9.906,0.003,-0.058,-0.015,-0.998,1,-35.246,-7.788,0.000,24.548,2,0.000000,0.000000,0.000000,0.000,0.000000,0,0,0,0,0
472,10.092678,0,0.027,-0.125,0.051,6.709,1.688,179.756,-0.448,-0.112,-0.224,-3.062,-13.812,-30.500,1.164,0.305,9.906,0.003,-0.058,-0.015,-0.998,1,-38.402,-8.129,0.000,24.548,2,0.000000,0.000000,0.000000,0.000,0.000000,0,0,0,0,0
473,10.112678,0,0.066,-0.109,0.051,6.708,1.682,179.762,0.000,0.000,0.000,-4.500,-14.188,-30.750,1.164,0.289,9.906,0.003,-0.058,-0.015,-0.998,1,-38.402,-8.129,0.000,24.548,2,0.000000,0.000000,0.000000,0.000,0.000000,0,0,0,0,0
474,10.131678,0,-0.012,-0.074,0.004,6.709,1.681,179.755,-0.112,0.000,0.000,-4.500,-14.750,-29.375,1.164,0.289,9.914,0.003,-0.058,-0.015,-0.998,1,-35.246,-7.788,0.000,24.548,2,0.000000,0.000000,0.000000,0.000,0.000000,0,0,0,0,0
475,10.149782,0,-0.012,-0.066,-0.035,6.709,1.674,179.755,0.112,0.112,0.448,-1.562,-16.250,-29.625,1.164,0.281,9.914,0.003,-0.058,-0.015,-0.998,1,-35.246,-7.788,0.000,24.548,2,0.000000,0.000000,0.000000,0.000,0.000000,0,0,0,0,0
476,10.171678,0,-0.012,0.012,-0.035,6.702,1.680,179.741,0.671,0.000,0.448,-5.000,-13.188,-31.312,1.164,0.281,9.914,0.003,-0.058,-0.015,-0.998,1,-35.246,-7.788,0.000,24.548,2,0.000000,0.000000,0.000000,0.000,0.000000,0,0,0,0,0
477,10.187781,0,-0.012,-0.027,-0.035,6.702,1.694,179.735,0.560,0.112,0.560,-5.375,-17.812,-28.688,1.164,0.281,9.914,0.003,-0.058,-0.015,-0.998,1,-38.402,-8.129,0.000,24.548,2,0.000000,0.000000,0.000000,0.000,0.000000,0,0,0,0,0
478,10.211678,0,0.027,0.012,-0.027,6.702,1.707,179.722,1.119,0.000,0.560,-4.062,-15.500,-28.875,1.164,0.281,9.914,0.003,-0.058,-0.015,-0.998,1,-35.246,-7.788,0.000,24.548,2,0.000000,0.000000,0.000000,0.000,0.000000,0,0,0,0,0
479,10.248671,0,0.027,0.043,-0.027,6.702,1.721,179.708,0.560,0.000,0.560,-4.500,-16.000,-27.562,1.164,0.289,9.906,0.003,-0.058,-0.015,-0.998,1,-35.246,-7.788,0.000,24.548,2,0.000000,0.000000,0.000000,0.000,0.000000,0,0,0,0,0
480,10.260782,0,-0.012,0.043,0.012,6.702,1.727,179.702,0.112,0.000,0.224,-4.688,-13.625,-28.875,1.164,0.289,9.906,0.003,-0.058,-0.015,-0.998,1,-35.246,-7.788,0.000,24.548,2,0.000000,0.000000,0.000000,0.000,0.000000,0,0,0,0,0
481,10.279678,0,-0.012,0.082,0.012,6.703,1.727,179.695,-0.560,0.000,-0.112,-5.000,-13.938,-30.375,1.164,0.289,9.906,0.004,-0.058,-0.015,-0.998,1,-35.246,-7.788,0.000,24.548,2,0.000000,0.000000,0.000000,0.000,0.000000,0,0,0,0,0
482,10.301698,0,-0.012,0.082,0.012,6.703,1.720,179.694,-0.560,0.000,-0.112,-2.812,-15.875,-29.250,1.164,0.281,9.906,0.004,-0.058,-0.015,-0.998,1,-35.246,-7.788,0.000,24.548,2,0.000000,0.000000,0.000000,0.000,0.000000,0,0,0,0,0
483,10.331677,0,0.027,0.043,0.012,6.702,1.699,179.700,-1.231,0.000,-0.112,-3.250,-12.688,-29.938,1.164,0.289,9.906,0.003,-0.058,-0.015,-0.998,1,-35.246,-7.788,0.000,24.548,2,0.000000,0.000000,0.000000,0.000,0.000000,0,0,0,0,0
484,10.362676,0,-0.012,-0.035,0.012,6.702,1.657,179.698,-1.567,0.000,-0.112,-2.500,-18.438,-28.750,1.164,0.281,9.906,0.003,-0.058,-0.015,-0.998,1,-32.090,-7.431,0.000,24.548,2,0.000000,0.000000,0.000000,0.000,0.000000,0,0,0,0,0
485,10.381677,0,-0.012,-0.035,-0.027,6.702,1.630,179.710,-0.448,0.112,-0.448,-3.062,-13.875,-30.125,1.164,0.281,9.906,0.003,-0.058,-0.014,-0.998,1,-38.402,-8.129,0.000,24.548,2,0.000000,0.000000,0.000000,0.000,0.000000,0,0,0,0,0
486,10.401677,0,0.027,-0.066,0.012,6.702,1.616,179.716,-0.336,0.000,-0.336,-2.562,-14.500,-30.375,1.164,0.281,9.906,0.003,-0.058,-0.014,-0.998,1,-35.246,-7.788,0.000,24.548,2,0.000000,0.000000,0.000000,0.000,0.000000,0,0,0,0,0
487,10.413781,0,-0.012,-0.066,0.012,6.702,1.616,179.723,-0.112,0.000,-0.224,-4.375,-16.000,-29.562,1.164,0.281,9.906,0.003,-0.058,-0.014,-0.998,1,-35.246,-7.788,0.000,24.548,2,0.000000,0.000000,0.000000,0.000,0.000000,0,0,0,0,0
488,10.441677,0,-0.012,-0.066,-0.066,6.702,1.616,179.723,0.560,0.000,-0.224,-5.000,-14.062,-29.500,1.164,0.281,9.906,0.003,-0.058,-0.014,-0.998,1,-32.090,-7.431,0.000,24.548,2,0.000000,0.000000,0.000000,0.000,0.000000,0,0,0,0,0
489,10.462676,0,-0.012,-0.074,-0.027,6.702,1.637,179.725,1.231,0.000,0.000,-1.250,-16.188,-28.562,1.164,0.281,9.906,0.003,-0.058,-0.014,-0.998,1,-27.881,-6.927,0.000,24.548,2,0.000000,0.000000,0.000000,0.000,0.000000,0,0,0,0,0
490,10.501677,0,0.027,-0.066,0.051,6.702,1.666,179.726,1.455,-0.112,0.224,-2.688,-16.688,-29.500,1.164,0.289,9.906,0.003,-0.058,-0.015,-0.998,1,-27.881,-6.927,0.000,24.548,2,0.000000,0.000000,0.000000,0.000,0.000000,0,0,0,0,0
491,10.527672,0,-0.012,0.004,-0.027,6.695,1.721,179.715,1.455,0.112,0.336,-6.188,-14.750,-28.562,1.164,0.297,9.906,0.003,-0.058,-0.015,-0.998,1,-32.090,-7.431,0.000,24.548,2,0.000000,0.000000,0.000000,0.000,0.000000,0,0,0,0,0
492,10.539782,0,0.027,0.043,-0.027,6.695,1.742,179.710,0.112,0.000,0.448,-5.438,-14.125,-29.062,1.164,0.289,9.906,0.003,-0.058,-0.015,-0.998,1,-27.881,-6.927,0.000,24.548,2,0.000000,0.000000,0.000000,0.000,0.000000,0,0,0,0,0
493,10.561677,0,-0.020,0.043,0.012,6.696,1.741,179.702,-0.336,0.112,0.336,-3.312,-14.562,-31.125,1.172,0.289,9.906,0.003,-0.058,-0.015,-0.998,1,-38.402,-8.129,0.000,24.548,2,0.000000,0.000000,0.000000,0.000,0.000000,0,0,0,0,0
494,10.573781,0,-0.020,0.043,-0.027,6.703,1.727,179.695,-0.895,0.000,0.336,-4.875,-14.938,-29.750,1.172,0.289,9.906,0.004,-0.058,-0.015,-0.998,1,-35.246,-7.788,0.000,24.548,2,0.000000,0.000000,0.000000,0.000,0.000000,0,0,0,0,0
495,10.606691,0,0.020,0.082,0.051,6.703,1.713,179.694,-1.007,0.112,0.336,-4.438,-15.812,-28.812,1.172,0.297,9.906,0.004,-0.058,-0.015,-0.998,1,-38.402,-8.129,0.000,24.548,2,0.000000,0.000000,0.000000,0.000,0.000000,0,0,0,0,0
496,10.627678,0,0.059,0.082,0.012,6.703,1.677,179.685,-1.679,0.000,0.000,-5.250,-15.625,-29.188,1.172,0.289,9.906,0.004,-0.058,-0.015,-0.998,1,-35.246,-7.788,0.000,24.548,2,0.000000,0.000000,0.000000,0.000,0.000000,0,0,0,0,0
497,10.643781,0,0.020,0.121,-0.027,6.702,1.628,179.689,-1.567,0.112,0.224,-4.562,-14.812,-29.000,1.172,0.289,9.906,0.004,-0.058,-0.014,-0.998,1,-38.402,-8.129,0.000,24.548,2,0.000000,0.000000,0.000000,0.000,0.000000,0,0,0,0,0
498,10.655781,0,-0.059,0.043,-0.066,6.702,1.614,179.688,-1.455,-0.112,-0.224,-2.875,-19.000,-28.625,1.172,0.281,9.906,0.004,-0.058,-0.014,-0.998,1,-38.402,-8.129,0.000,24.548,2,0.000000,0.000000,0.000000,0.000,0.000000,0,0,0,0,0
499,10.671677,0,-0.098,0.012,-0.066,6.709,1.593,179.687,-0.671,-0.224,0.112,-2.312,-13.438,-29.875,1.172,0.281,9.906,0.004,-0.058,-0.014,-0.998,1,-38.402,-8.129,0.000,24.548,2,0.000000,0.000000,0.000000,0.000,0.000000,0,0,0,0,0
500,10.687781,0,-0.203,-0.148,-0.027,6.709,1.586,179.687,-0.560,-0.112,-0.224,-3.500,-13.562,-30.125,1.164,0.289,9.906,0.004,-0.058,-0.014,-0.998,1,-32.090,-7.431,0.000,24.548,2,0.000000,0.000000,0.000000,0.000,0.000000,0,0,0,0,0
501,10.727672,0,-0.004,-0.102,0.059,6.709,1.579,179.693,0.112,-0.112,-0.224,-2.688,-13.188,-31.125,1.156,0.281,9.906,0.003,-0.058,-0.014,-0.998,1,-35.246,-7.788,0.000,24.548,2,0.000000,0.000000,0.000000,0.000,0.000000,0,0,0,0,0
502,10.743781,0,0.043,-0.059,0.098,6.709,1.608,179.702,1.567,0.112,-0.224,-3.812,-13.938,-30.875,1.148,0.281,9.898,0.003,-0.058,-0.014,-0.998,1,-35.246,-7.788,0.000,24.548,2,0.000000,0.000000,0.000000,0.000,0.000000,0,0,0,0,0
503,10.770677,0,0.195,0.012,-0.020,6.702,1.664,179.705,1.902,0.000,0.112,-3.500,-13.875,-29.688,1.148,0.281,9.898,0.003,-0.058,-0.015,-0.998,1,-35.246,-7.788,0.000,24.548,2,0.000000,0.000000,0.000000,0.000,0.000000,0,0,0,0,0
504,10.786781,0,0.195,0.051,-0.020,6.702,1.699,179.700,1.790,0.000,0.224,-4.688,-16.125,-30.312,1.148,0.281,9.898,0.003,-0.058,-0.015,-0.998,1,-35.246,-7.788,0.000,24.548,2,0.000000,0.000000,0.000000,0.000,0.000000,0,0,0,0,0
505,10.801677,0,0.148,0.043,-0.020,6.695,1.727,179.702,1.567,0.112,0.336,-4.562,-14.500,-29.062,1.156,0.289,9.898,0.003,-0.058,-0.015,-0.998,1,-38.402,-8.129,0.000,24.548,2,0.000000,0.000000,0.000000,0.000,0.000000,0,0,0,0,0
506,10.817781,0,0.102,0.004,-0.020,6.696,1.741,179.695,1.455,0.000,0.336,-4.000,-14.875,-30.625,1.164,0.289,9.898,0.004,-0.058,-0.015,-0.998,1,-35.246,-7.788,0.000,24.548,2,0.000000,0.000000,0.000000,0.000,0.000000,0,0,0,0,0
507,10.841678,0,-0.059,-0.004,-0.020,6.703,1.761,179.690,0.671,-0.112,0.560,-4.438,-15.375,-29.312,1.164,0.297,9.898,0.004,-0.058,-0.016,-0.998,1,-35.246,-7.788,0.000,24.548,2,0.000000,0.000000,0.000000,0.000,0.000000,0,0,0,0,0
508,10.871677,0,-0.098,0.035,-0.020,6.703,1.775,179.684,-0.112,-0.112,0.224,-2.500,-15.188,-29.875,1.172,0.297,9.898,0.004,-0.058,-0.016,-0.998,1,-35.246,-7.788,0.000,24.548,2,0.000000,0.000000,0.000000,0.000,0.000000,0,0,0,0,0
509,10.891677,0,-0.133,0.066,0.020,6.703,1.754,179.675,-1.231,0.112,0.112,-2.438,-15.438,-30.188,1.172,0.297,9.898,0.004,-0.058,-0.015,-0.998,1,-38.402,-8.129,0.000,24.548,2,0.000000,0.000000,0.000000,0.000,0.000000,0,0,0,0,0
510,10.911676,0,-0.090,0.121,0.020,6.703,1.725,179.674,-1.679,0.000,0.000,-4.062,-15.000,-30.188,1.172,0.297,9.898,0.004,-0.058,-0.015,-0.998,1,-35.246,-7.788,0.000,24.548,2,0.000000,0.000000,0.000000,0.000,0.000000,0,0,0,0,0
511,10.930677,0,-0.012,0.121,0.020,6.703,1.684,179.678,-2.014,-0.112,-0.336,-4.875,-18.062,-29.500,1.164,0.297,9.898,0.004,-0.058,-0.015,-0.998,1,-38.402,-8.129,0.000,24.548,2,0.000000,0.000000,0.000000,0.000,0.000000,0,0,0,0,0
512,10.951678,0,0.027,0.082,0.020,6.710,1.642,179.683,-1.902,-0.112,-0.336,-4.000,-15.750,-29.188,1.164,0.289,9.898,0.004,-0.058,-0.014,-0.998,1,-35.246,-7.788,0.000,24.548,2,0.000000,0.000000,0.000000,0.000,0.000000,0,0,0,0,0
513,10.967782,0,0.074,0.043,0.020,6.709,1.614,179.688,-1.455,-0.112,-0.560,-1.688,-14.938,-29.938,1.156,0.289,9.898,0.004,-0.058,-0.014,-0.998,1,-38.402,-8.129,0.000,24.548,2,0.000000,0.000000,0.000000,0.000,0.000000,0,0,0,0,0
514,10.991677,0,0.102,0.004,0.051,6.709,1.601,179.694,-1.007,-0.224,-0.448,-3.062,-13.438,-31.000,1.156,0.289,9.906,0.003,-0.058,-0.014,-0.998,1,-32.090,-7.431,0.000,24.548,2,0.000000,0.000000,0.000000,0.000,0.000000,0,0,0,0,0
515,11.011678,0,0.066,0.004,0.012,6.709,1.581,179.714,0.336,0.000,-0.560,-2.375,-16.250,-29.250,1.164,0.297,9.906,0.003,-0.058,-0.014,-0.998,1,-38.402,-8.129,0.000,24.548,2,0.000000,0.000000,0.000000,0.000,0.000000,0,0,0,0,0
516,11.030677,0,-0.051,-0.117,-0.027,6.709,1.589,179.729,0.783,0.112,-0.671,-2.688,-13.625,-30.188,1.164,0.297,9.906,0.003,-0.058,-0.014,-0.998,1,-38.402,-8.129,0.000,24.548,2,0.000000,0.000000,0.000000,0.000,0.000000,0,0,0,0,0
517,11.042781,0,-0.051,-0.148,-0.027,6.709,1.617,179.737,1.567,-0.112,-0.336,-3.375,-14.375,-30.438,1.164,0.289,9.906,0.003,-0.058,-0.014,-0.998,1,-38.402,-8.129,0.000,24.548,2,0.000000,0.000000,0.000000,0.000,0.000000,0,0,0,0,0
518,11.070677,0,-0.051,-0.156,0.012,6.709,1.638,179.739,1.679,-0.112,-0.112,-2.062,-14.750,-30.812,1.164,0.297,9.906,0.003,-0.058,-0.014,-0.998,1,-38.402,-8.129,0.000,24.548,2,0.000000,0.000000,0.000000,0.000,0.000000,0,0,0,0,0
519,11.090677,0,-0.051,-0.117,-0.027,6.716,1.695,179.749,2.014,-0.224,-0.112,-3.875,-17.438,-28.062,1.164,0.297,9.906,0.003,-0.059,-0.015,-0.998,1,-38.402,-8.129,0.000,24.548,2,0.000000,0.000000,0.000000,0.000,0.000000,0,0,0,0,0
520,11.110676,0,-0.012,-0.082,0.012,6.716,1.737,179.745,2.126,0.000,0.112,-3.250,-16.250,-28.750,1.164,0.305,9.906,0.003,-0.059,-0.015,-0.998,1,-35.246,-7.788,0.000,24.548,2,0.000000,0.000000,0.000000,0.000,0.000000,0,0,0,0,0
521,11.122781,0,-0.012,-0.012,0.012,6.709,1.771,179.739,1.679,0.112,0.336,-3.000,-15.000,-29.062,1.164,0.305,9.906,0.003,-0.058,-0.016,-0.998,1,-35.246,-7.788,0.000,24.548,2,0.000000,0.000000,0.000000,0.000,0.000000,0,0,0,0,0
522,11.155677,0,0.027,0.035,0.012,6.709,1.785,179.740,1.343,0.112,0.448,-2.000,-15.500,-30.250,1.164,0.297,9.906,0.003,-0.058,-0.016,-0.998,1,-35.246,-7.788,0.000,24.548,2,0.000000,0.000000,0.000000,0.000,0.000000,0,0,0,0,0
523,11.167781,0,0.027,0.074,0.012,6.709,1.805,179.720,0.112,0.000,0.560,-2.250,-14.500,-28.812,1.164,0.297,9.906,0.003,-0.058,-0.016,-0.998,1,-35.246,-7.788,0.000,24.548,2,0.000000,0.000000,0.000000,0.000,0.000000,0,0,0,0,0
524,11.190676,0,0.066,0.113,-0.027,6.709,1.791,179.713,-0.783,0.000,0.560,-2.125,-14.938,-29.938,1.164,0.297,9.906,0.003,-0.058,-0.016,-0.998,1,-35.246,-7.788,0.000,24.548,2,0.000000,0.000000,0.000000,0.000,0.000000,0,0,0,0,0
525,11.211677,0,-0.012,0.113,-0.027,6.710,1.769,179.704,-1.119,0.112,0.224,-2.250,-14.125,-29.250,1.164,0.289,9.906,0.003,-0.058,-0.016,-0.998,1,-38.402,-8.129,0.000,24.548,2,0.000000,0.000000,0.000000,0.000,0.000000,0,0,0,0,0
526,11.239677,0,-0.051,0.113,0.012,6.709,1.741,179.703,-1.455,0.000,0.000,-3.938,-13.750,-28.875,1.164,0.289,9.906,0.003,-0.058,-0.015,-0.998,1,-35.246,-7.788,0.000,24.548,2,0.000000,0.000000,0.000000,0.000,0.000000,0,0,0,0,0
527,11.275684,0,-0.090,0.035,0.051,6.709,1.692,179.707,-1.679,-0.112,-0.336,-3.000,-13.750,-30.938,1.164,0.289,9.906,0.003,-0.058,-0.015,-0.998,1,-38.402,-8.129,0.000,24.548,2,0.000000,0.000000,0.000000,0.000,0.000000,0,0,0,0,0
528,11.287781,0,-0.090,0.043,0.051,6.709,1.658,179.726,-1.007,-0.112,-0.671,-2.688,-13.188,-31.125,1.164,0.289,9.906,0.003,-0.058,-0.015,-0.998,1,-38.402,-8.129,0.000,24.548,2,0.000000,0.000000,0.000000,0.000,0.000000,0,0,0,0,0
529,11.310678,0,-0.004,-0.043,-0.027,6.709,1.645,179.732,-0.671,0.112,-0.448,-4.875,-18.062,-29.500,1.156,0.289,9.906,0.003,-0.058,-0.014,-0.998,1,-35.246,-7.788,0.000,24.548,2,0.000000,0.000000,0.000000,0.000,0.000000,0,0,0,0,0
530,11.355670,0,0.074,-0.082,0.004,6.709,1.639,179.746,-0.448,-0.112,-0.336,-4.812,-12.500,-30.312,1.156,0.297,9.914,0.003,-0.058,-0.014,-0.998,1,-35.246,-7.788,0.000,24.548,2,0.000000,0.000000,0.000000,0.000,0.000000,0,0,0,0,0
